orient,trials.thisRepN,trials.thisTrialN,trials.thisN,trials.thisIndex,polygon.started,polygon_2.started,polygon.stopped,polygon_2.stopped,grating.started,key_resp.started,grating.stopped,key_resp.keys,key_resp.corr,key_resp.rt,key_resp.duration,tilt,participant,session,date,expName,psychopyVersion,frameRate,
0,0,0,0,0,12.670087957999954,13.647394167000016,13.664874291999922,14.136280917000022,14.160329457999978,14.448397457999931,14.455410958000016,up,1,0.4996043329999793,None,0,1,001,2023-11-27_10h58.50.073,Final_Project,2023.1.3,None,
45,0,1,1,1,15.015759000000003,15.980360082999937,16.01452954199999,16.469224332999943,16.481776874999923,16.781871749999937,16.77060849999998,up,0,0.30178075000003446,None,-5,1,001,2023-11-27_10h58.50.073,Final_Project,2023.1.3,None,
45,1,0,2,1,17.102534874999947,18.09063674999993,18.097037916999966,18.587719666999988,18.587719666999988,18.887033499999916,18.882003624999925,up,1,0.47718266700007916,None,0,1,001,2023-11-27_10h58.50.073,Final_Project,2023.1.3,None,
0,1,1,3,0,19.37896183299995,20.364712166999993,20.371063542,20.853460917000007,20.86531762499999,21.165378707999935,21.15360883300002,up,1,0.38879124899995077,None,0,1,001,2023-11-27_10h58.50.073,Final_Project,2023.1.3,None,
0,2,0,4,0,21.569064124999954,22.557353124999963,22.564905167000006,23.05490983300001,23.05490983300001,23.354271749999953,23.348776374999943,up,1,0.46330570800000714,None,0,1,001,2023-11-27_10h58.50.073,Final_Project,2023.1.3,None,
45,2,1,5,1,23.835591582999996,24.823257541999965,24.831545457999937,25.32132066700001,25.32132066700001,25.620511833000023,25.615613457999984,up,1,0.36917062500003794,None,0,1,001,2023-11-27_10h58.50.073,Final_Project,2023.1.3,None,
0,3,0,6,0,26.013043583000012,26.99834579200001,27.00428070800001,27.486411541999928,27.498953791999952,27.799064332999933,27.786966042000017,down,1,0.3623259580000422,None,4,1,001,2023-11-27_10h58.50.073,Final_Project,2023.1.3,None,
45,3,1,7,1,28.18081266699994,29.165073042000017,29.171498999999926,29.65418458299996,29.665689666999924,29.965810583000007,29.954009541999994,down,1,0.5719380410000667,None,1,1,001,2023-11-27_10h58.50.073,Final_Project,2023.1.3,None,
45,4,0,8,1,30.552216250000015,31.540540541999917,31.548541417000024,32.03805612499991,32.03805612499991,32.33759054199993,32.332504374999985,down,1,0.48033445800001573,None,3,1,001,2023-11-27_10h58.50.073,Final_Project,2023.1.3,None,
0,4,1,9,0,32.83601841699999,33.82349979200001,33.83196395799996,34.315814124999974,34.322109207999915,34.621296667000024,34.61590608299991,up,1,0.4986942909999925,None,0,1,001,2023-11-27_10h58.50.073,Final_Project,2023.1.3,None,
45,5,0,10,1,35.136360707999984,36.12445641699992,36.13218162499993,36.62190204199999,36.62190204199999,36.92185729199991,36.91593954199993,up,1,0.2990611660000013,None,0,1,001,2023-11-27_10h58.50.073,Final_Project,2023.1.3,None,
0,5,1,11,0,37.23623774999999,38.224013042000024,38.232187291999935,38.72241812499999,38.72241812499999,39.02165500000001,39.016202791999945,down,1,0.2543095830000084,None,-5,1,001,2023-11-27_10h58.50.073,Final_Project,2023.1.3,None,
45,6,0,12,1,39.29816679199996,40.282137374999934,40.28840741699992,40.77065579199996,40.78281266699992,41.08295874999999,41.072700582999914,up,0,0.38758516600000803,None,1,1,001,2023-11-27_10h58.50.073,Final_Project,2023.1.3,None,
0,6,1,13,0,41.48553187499999,42.474924708,42.482534042,42.97141899999997,42.97141899999997,43.27122737499997,43.26629758299998,down,1,0.1504461250000304,None,-5,1,001,2023-11-27_10h58.50.073,Final_Project,2023.1.3,None,
0,7,0,14,0,43.435787000000005,44.42437795799992,44.43250895799997,44.92239633299994,44.92239633299994,45.22290624999994,45.21645279199993,up,1,0.639392166999869,None,0,1,001,2023-11-27_10h58.50.073,Final_Project,2023.1.3,None,
45,7,1,15,1,45.881423957999914,46.86580229200001,46.872146749999956,47.354604249999966,47.36652608299994,47.66639691699993,47.65508170800001,down,1,0.5669823329999417,None,3,1,001,2023-11-27_10h58.50.073,Final_Project,2023.1.3,None,
45,8,0,16,1,48.24809862500001,49.23253875,49.23852866699997,49.72062395799992,49.73320545799993,50.03338199999996,50.02153649999991,up,1,0.11195583300002454,None,0,1,001,2023-11-27_10h58.50.073,Final_Project,2023.1.3,None,
0,8,1,17,0,50.164379749999966,51.149282374999984,51.15559533299995,51.63773325,51.64999629199997,51.95005508299994,51.938841457999956,up,0,0.26294787500000893,None,1,1,001,2023-11-27_10h58.50.073,Final_Project,2023.1.3,None,
0,9,0,18,0,52.23207712499993,53.21613512499994,53.22255904199994,53.70422199999996,53.716635166999936,54.01688191699998,54.00559791699993,down,1,0.34516974899997876,None,-5,1,001,2023-11-27_10h58.50.073,Final_Project,2023.1.3,None,
45,9,1,19,1,54.382043332999956,55.36626554199995,55.37267662499994,55.85446966699999,55.866768417,56.166914874999975,56.15566795799998,down,1,0.4192681669999274,None,2,1,001,2023-11-27_10h58.50.073,Final_Project,2023.1.3,None,
0,10,0,20,0,56.60279566700001,57.59197874999995,57.59964095800001,58.089364208000006,58.089364208000006,58.38962824999999,58.38352558299994,up,1,0.21790450000003148,None,0,1,001,2023-11-27_10h58.50.073,Final_Project,2023.1.3,None,
45,10,1,21,1,58.63138591699999,59.616453916999944,59.62260241699994,60.104399167,60.11697866700001,60.417071082999996,60.40663295799993,up,0,0.3693611249999549,None,3,1,001,2023-11-27_10h58.50.073,Final_Project,2023.1.3,None,
45,11,0,22,1,60.80370745799996,61.79200295800001,61.79992170799994,62.29013820799992,62.29013820799992,62.58959270799994,62.583847375000005,down,0,0.2897947080000449,None,0,1,001,2023-11-27_10h58.50.073,Final_Project,2023.1.3,None,
0,11,1,23,0,62.89801308300002,63.88320937499998,63.88968720799994,64.37179816699995,64.38383112499992,64.68395762499995,64.67251933299997,down,1,0.6413838329999635,None,-2,1,001,2023-11-27_10h58.50.073,Final_Project,2023.1.3,None,
0,12,0,24,0,65.34886904199993,66.33335929199995,66.33930737499998,66.82174204199998,66.83401433299991,67.48820091699997,67.48820091699997,down,1,0.2289355829999522,None,4,1,001,2023-11-27_10h58.50.073,Final_Project,2023.1.3,None,
45,12,1,25,1,67.73314820799999,68.71673437499999,68.72283816699996,69.20550649999996,69.21733262499993,69.51741891699999,69.50563075000002,down,1,0.6794049160000668,None,3,1,001,2023-11-27_10h58.50.073,Final_Project,2023.1.3,None,
0,13,0,26,0,70.21652166699994,71.20014891699998,71.20643999999993,71.68915520799999,71.70077687499997,72.00082991699992,71.98885587500001,up,1,0.2503524579999521,None,0,1,001,2023-11-27_10h58.50.073,Final_Project,2023.1.3,None,
45,13,1,27,1,72.26751849999994,73.25037499999996,73.25673408299997,73.73889741699998,73.75768641699995,74.05087674999993,74.05087674999993,down,1,0.5452412079999931,None,-2,1,001,2023-11-27_10h58.50.073,Final_Project,2023.1.3,None,
45,14,0,28,1,74.61439904199995,75.60050854199994,75.60646758299993,76.088303333,76.10100908300001,76.40105833299992,76.38918741700002,up,1,0.326437583000029,None,0,1,001,2023-11-27_10h58.50.073,Final_Project,2023.1.3,None,
0,14,1,29,0,76.74977391699997,77.733742958,77.74007095799993,78.22178829199993,78.23445383299998,78.53442191699992,78.52259470799993,down,0,0.5679145409999364,None,0,1,001,2023-11-27_10h58.50.073,Final_Project,2023.1.3,None,
0,15,0,30,0,79.12128308299998,80.10886037499995,80.11719545799997,80.60678545799999,80.60678545799999,80.90730904199995,80.901286917,up,1,0.2454088330000559,None,0,1,001,2023-11-27_10h58.50.073,Final_Project,2023.1.3,None,
45,15,1,31,1,81.17108670799996,82.15909916700002,82.16726599999993,82.65723637499991,82.65723637499991,82.95687312500002,82.951339125,down,1,0.3151676250000719,None,-3,1,001,2023-11-27_10h58.50.073,Final_Project,2023.1.3,None,
0,16,0,32,0,83.28803966700002,84.27630737499999,84.28407912499995,84.77418108299992,84.77418108299992,85.07326408299991,85.067978875,up,1,0.1829918749999706,None,0,1,001,2023-11-27_10h58.50.073,Final_Project,2023.1.3,None,
45,16,1,33,1,85.27130241700002,86.25882775000002,86.26740625000002,86.75137845799998,86.75761995799996,87.05682149999996,87.05141195800002,down,0,0.1811974160000318,None,0,1,001,2023-11-27_10h58.50.073,Final_Project,2023.1.3,None,
45,17,0,34,1,87.25406987499991,88.24287279199996,88.25089591699998,88.74072337500002,88.74072337500002,89.03983404199994,89.03481241700001,up,1,0.14575841699991088,None,0,1,001,2023-11-27_10h58.50.073,Final_Project,2023.1.3,None,
0,17,1,35,0,89.20498220799993,90.19332837499996,90.20099066699993,90.69070695799996,90.69070695799996,90.99062624999999,90.98498504199995,down,0,0.24085487399997874,None,0,1,001,2023-11-27_10h58.50.073,Final_Project,2023.1.3,None,
45,18,0,36,1,91.25067966699999,92.23442387499995,92.24075370799994,92.722478583,92.73501499999998,93.03512591699996,93.02414029199997,down,1,0.4406728750000184,None,2,1,001,2023-11-27_10h58.50.073,Final_Project,2023.1.3,None,
0,18,1,37,0,93.50037770799997,94.48443995799994,94.49080579199995,94.97326445800002,94.98501124999996,95.285173708,95.27305304200002,down,1,0.35492404100000385,None,-4,1,001,2023-11-27_10h58.50.073,Final_Project,2023.1.3,None,
45,19,0,38,1,95.65444133300002,96.64321837499995,96.65128299999992,97.14026899999999,97.14026899999999,97.440730917,97.435184542,up,1,0.2231456670000398,None,0,1,001,2023-11-27_10h58.50.073,Final_Project,2023.1.3,None,
0,19,1,39,0,97.683269042,98.66794062499991,98.67427170799999,99.15678654199996,99.16856599999994,99.46862116699992,99.457242458,up,1,0.12999037500003396,None,0,1,001,2023-11-27_10h58.50.073,Final_Project,2023.1.3,None,
0,20,0,40,0,99.61616837499992,100.601415083,100.60769020800001,101.08999916699997,101.10202887499997,101.40199658299991,101.39022062499998,up,1,0.2701775829999633,None,0,1,001,2023-11-27_10h58.50.073,Final_Project,2023.1.3,None,
45,20,1,41,1,101.68866770799991,102.67697462499996,102.68483879199994,103.17440583299992,103.17440583299992,103.473597542,103.46872645799999,up,0,0.19992708299992046,None,-2,1,001,2023-11-27_10h58.50.073,Final_Project,2023.1.3,None,
0,21,0,42,0,103.68843487499998,104.67732224999997,104.68495291699992,105.17465866700002,105.17465866700002,105.47374679199993,105.46880599999997,up,1,0.27847441599999456,None,0,1,001,2023-11-27_10h58.50.073,Final_Project,2023.1.3,None,
45,21,1,43,1,105.76758816699999,106.75166141699992,106.757619417,107.24097312499998,107.25233145799996,107.552262208,107.540521292,down,0,0.23232258300004105,None,0,1,001,2023-11-27_10h58.50.073,Final_Project,2023.1.3,None,
0,22,0,44,0,107.79959829199993,108.78509024999994,108.79113308299998,109.27335495799991,109.28559220799991,109.58563445799996,109.57490829199992,up,1,0.3831806240000333,None,0,1,001,2023-11-27_10h58.50.073,Final_Project,2023.1.3,None,
45,22,1,45,1,109.98443933299995,110.96843329199999,110.97486987499997,111.45727854199993,111.46906866699999,111.76902737499995,111.75736379199998,up,1,0.5438638329999321,None,0,1,001,2023-11-27_10h58.50.073,Final_Project,2023.1.3,None,
45,23,0,46,1,112.33503933299994,113.31849254199994,113.32488000000001,113.80744225000001,113.819281208,114.119154417,114.10714608299998,down,1,0.4049903740000218,None,4,1,001,2023-11-27_10h58.50.073,Final_Project,2023.1.3,None,
0,23,1,47,0,114.53933341699997,115.52704741699995,115.53538849999995,116.02551033299994,116.02551033299994,116.32475145799992,116.319261375,down,1,0.26111399900003107,None,-4,1,001,2023-11-27_10h58.50.073,Final_Project,2023.1.3,None,
0,24,0,48,0,116.60216887499996,117.585332042,117.59163841700001,118.073993417,118.08601012499992,118.38599758299995,118.37538670799995,down,1,0.3946582500000204,None,-2,1,001,2023-11-27_10h58.50.073,Final_Project,2023.1.3,None,
45,24,1,49,1,118.79998599999999,119.78554062499995,119.79185091699992,120.273938542,120.28613704199995,120.58617370799993,120.57512604199997,down,1,0.4901726670000244,None,-2,1,001,2023-11-27_10h58.50.073,Final_Project,2023.1.3,None,
45,25,0,50,1,121.10166004199993,122.08563670799992,122.09172945799992,122.57450129199992,122.58620970799996,122.88623133299996,122.87583525000002,up,0,0.6431807080000453,None,-2,1,001,2023-11-27_10h58.50.073,Final_Project,2023.1.3,None,
0,25,1,51,0,123.55180154200002,124.53561620799996,124.54196662499999,125.02463020799996,125.03627395799992,125.336390833,125.32454150000001,up,0,0.48252654099997017,None,-2,1,001,2023-11-27_10h58.50.073,Final_Project,2023.1.3,None,
0,26,0,52,0,125.83375512499993,126.81870237499993,126.82438083299996,127.30785958299998,127.31971445800002,127.61981483299996,127.60876158299993,up,1,0.38660745799995766,None,0,1,001,2023-11-27_10h58.50.073,Final_Project,2023.1.3,None,
45,26,1,53,1,128.02309204199992,129.01127504199997,129.01915720800002,129.50948012499998,129.50948012499998,129.80838741699995,129.80325916699996,down,1,0.5460167920000458,None,3,1,001,2023-11-27_10h58.50.073,Final_Project,2023.1.3,None,
45,27,0,54,1,130.373211125,131.36172483299993,131.36930233299995,131.85853866699995,131.85853866699995,132.1584537079999,132.153408625,up,0,0.3576112920000014,None,1,1,001,2023-11-27_10h58.50.073,Final_Project,2023.1.3,None,
0,27,1,55,0,132.53581583300002,133.51936729199997,133.52571554199994,134.007696958,134.01996170799998,134.31997445799993,134.30816395800002,up,1,0.31880070800002613,None,0,1,001,2023-11-27_10h58.50.073,Final_Project,2023.1.3,None,
45,28,0,56,1,134.65602966699998,135.64500858299994,135.65284458299993,136.14259804199992,136.14259804199992,136.441600708,136.43669683299993,down,1,0.3231105419999949,None,3,1,001,2023-11-27_10h58.50.073,Final_Project,2023.1.3,None,
0,28,1,57,0,136.784922833,137.76943933299992,137.775370833,138.25754237499996,138.27010608299997,138.570221125,138.55895358299995,up,1,0.32579083299992817,None,0,1,001,2023-11-27_10h58.50.073,Final_Project,2023.1.3,None,
45,29,0,58,1,138.918189333,139.90302095799996,139.908961792,140.39166612499992,140.40357404199995,140.70366683299994,140.69187866699997,up,1,0.5438251250000121,None,0,1,001,2023-11-27_10h58.50.073,Final_Project,2023.1.3,None,
0,29,1,59,0,141.26925408299996,142.25297145799993,142.25891049999996,142.74143112499996,142.75365999999997,143.05374462499992,143.04186737499992,up,0,0.31778729100005876,None,-2,1,001,2023-11-27_10h58.50.073,Final_Project,2023.1.3,None,
0,30,0,60,0,143.38988124999992,144.37827216699998,144.38645666699995,144.87615412499997,144.87615412499997,145.17599695799993,145.17045162499994,up,1,0.27758320800001,None,0,1,001,2023-11-27_10h58.50.073,Final_Project,2023.1.3,None,
45,30,1,61,1,145.468348,146.45317875,146.459284958,146.94151483299993,146.953792583,147.25395466700002,147.24207720799996,up,0,0.49012449899998956,None,1,1,001,2023-11-27_10h58.50.073,Final_Project,2023.1.3,None,
0,31,0,62,0,147.76862545799997,148.75330124999994,148.75960262499996,149.24183874999994,149.25394679199997,149.55396254200002,149.54197712500002,up,1,0.35197104099995613,None,0,1,001,2023-11-27_10h58.50.073,Final_Project,2023.1.3,None,
45,31,1,63,1,149.92460674999995,150.91256399999997,150.92012949999992,151.40955204199997,151.40955204199997,151.70898049999994,151.70397737500002,down,1,0.4951321659999621,None,3,1,001,2023-11-27_10h58.50.073,Final_Project,2023.1.3,None,
45,32,0,64,1,152.21979129199997,153.20347249999998,153.209929375,153.692357958,153.704098542,154.004205792,153.99318004199995,up,1,0.4249899579999692,None,0,1,001,2023-11-27_10h58.50.073,Final_Project,2023.1.3,None,
0,32,1,65,0,154.45285995799998,155.436827375,155.443154542,155.92567862499993,155.93758079199995,156.23761758299997,156.226731083,up,1,0.45875100000000657,None,0,1,001,2023-11-27_10h58.50.073,Final_Project,2023.1.3,None,
0,33,0,66,0,156.71881374999998,157.70361837500002,157.70998604199997,158.19200308299992,158.20426770799997,158.50438175,158.492377917,up,1,0.29988824999998087,None,0,1,001,2023-11-27_10h58.50.073,Final_Project,2023.1.3,None,
45,33,1,67,1,158.82017299999995,159.80314929199994,159.80878679199998,160.29266470799996,160.304447042,160.60448795799994,160.5927845829999,down,1,0.489752167000006,None,-4,1,001,2023-11-27_10h58.50.073,Final_Project,2023.1.3,None,
45,34,0,68,1,161.11958237499994,162.10382266699992,162.10972245799996,162.59243208299995,162.60445241699995,162.90459016699992,162.89269875000002,up,1,0.36351570800002264,None,0,1,001,2023-11-27_10h58.50.073,Final_Project,2023.1.3,None,
0,34,1,69,0,163.28691095800002,164.27052979199993,164.27685829199993,164.75948041699996,164.77101474999995,165.07129154199993,165.05946279199998,down,1,0.4060712909999893,None,-3,1,001,2023-11-27_10h58.50.073,Final_Project,2023.1.3,None,
45,35,0,70,1,165.491925875,166.47929229199997,166.48735645800002,166.97685137500002,166.97685137500002,167.27638308299993,167.27135962499995,up,1,0.3650871659999666,None,0,1,001,2023-11-27_10h58.50.073,Final_Project,2023.1.3,None,
0,35,1,71,0,167.65735941699995,168.64654441699997,168.65415491699991,169.1435194999999,169.1435194999999,169.442967458,169.43804895799997,up,1,0.31642554099994413,None,0,1,001,2023-11-27_10h58.50.073,Final_Project,2023.1.3,None,
45,36,0,72,1,169.77421362500002,170.76283454199995,170.77085612500002,171.25985354199997,171.25985354199997,171.56012483299992,171.554778458,down,1,0.3193700409999565,None,-5,1,001,2023-11-27_10h58.50.073,Final_Project,2023.1.3,None,
0,36,1,73,0,171.90257499999996,172.88767241699998,172.89393224999992,173.37647808299994,173.388233583,173.688208292,173.67648099999997,up,1,0.4501143329999877,None,0,1,001,2023-11-27_10h58.50.073,Final_Project,2023.1.3,None,
0,37,0,74,0,174.15402925,175.13769441699992,175.144076917,175.62598954199996,175.638296792,175.938238792,175.926509625,up,0,0.4265582909998784,None,1,1,001,2023-11-27_10h58.50.073,Final_Project,2023.1.3,None,
45,37,1,75,1,176.38558220799996,177.371047417,177.37738941700002,177.86009545799993,177.871932667,178.17181666699992,178.16050437499996,up,1,0.35273354199989626,None,0,1,001,2023-11-27_10h58.50.073,Final_Project,2023.1.3,None,
0,38,0,76,0,178.541255042,179.52990554199994,179.537897542,180.02741774999993,180.02741774999993,180.326918375,180.321905958,up,1,0.26483745799998815,None,0,1,001,2023-11-27_10h58.50.073,Final_Project,2023.1.3,None,
45,38,1,77,1,180.60820954199994,181.596602083,181.604601,182.09419341699993,182.09419341699993,182.39372849999995,182.38856395799996,up,1,0.7708503329999985,None,0,1,001,2023-11-27_10h58.50.073,Final_Project,2023.1.3,None,
45,39,0,78,1,183.18675679199998,184.171373292,184.17780804199992,184.66035995799996,184.671926333,184.97209120799994,184.960939208,down,1,0.4515646669999569,None,3,1,001,2023-11-27_10h58.50.073,Final_Project,2023.1.3,None,
0,39,1,79,0,185.44201120799994,186.430454167,186.43814837499997,186.9283325,186.9283325,187.22766941700002,187.22215233299994,up,0,0.359900707999941,None,1,1,001,2023-11-27_10h58.50.073,Final_Project,2023.1.3,None,
45,40,0,80,1,187.6027607919999,188.58822529199995,188.59459345799996,189.076538625,189.088891333,189.38888541699998,189.377380583,up,1,0.1506246659999988,None,0,1,001,2023-11-27_10h58.50.073,Final_Project,2023.1.3,None,
0,40,1,81,0,189.55873820800002,190.54687320799997,190.55494016699993,191.04431758299995,191.04431758299995,191.34473649999995,191.338987083,down,1,0.41457291599988366,None,3,1,001,2023-11-27_10h58.50.073,Final_Project,2023.1.3,None,
0,41,0,82,0,191.77482370799999,192.76423887499993,192.77178808299993,193.26119612499997,193.26119612499997,193.56148174999998,193.55568799999992,up,1,0.3712171669999407,None,0,1,001,2023-11-27_10h58.50.073,Final_Project,2023.1.3,None,
45,41,1,83,1,193.954104917,194.93849783299993,194.94443924999996,195.42646145799995,195.43915083299999,195.73906416699992,195.726820417,down,1,0.2871536659999947,None,-4,1,001,2023-11-27_10h58.50.073,Final_Project,2023.1.3,None,
0,42,0,84,0,196.04265091699995,197.03059945799998,197.03851024999994,197.52819158299997,197.52819158299997,197.82720779199997,197.82236666699998,up,1,0.27945641600001636,None,0,1,001,2023-11-27_10h58.50.073,Final_Project,2023.1.3,None,
45,42,1,85,1,198.125949667,199.11467949999997,199.12119833299994,199.61142866699993,199.61142866699993,199.91073095799993,199.90597320799998,down,1,0.5321067909999329,None,2,1,001,2023-11-27_10h58.50.073,Final_Project,2023.1.3,None,
45,43,0,86,1,200.45860370799994,201.44701620799992,201.45534387499993,201.939192833,201.9452894169999,202.24442662499996,202.239393167,up,1,0.5398081670000465,None,0,1,001,2023-11-27_10h58.50.073,Final_Project,2023.1.3,None,
0,43,1,87,0,202.80452945799993,203.788827125,203.79517529199995,204.276657333,204.28948587499997,204.58937283299997,204.57759804199998,down,0,0.7835377079999262,None,0,1,001,2023-11-27_10h58.50.073,Final_Project,2023.1.3,None,
45,44,0,88,1,205.38822070799995,206.37220449999995,206.37853629199992,206.86114287499993,206.87285158299994,207.17288662499993,207.16191625,down,0,0.5208051250000381,None,0,1,001,2023-11-27_10h58.50.073,Final_Project,2023.1.3,None,
0,44,1,89,0,207.70993279200002,208.69815145799998,208.705721542,209.19532199999992,209.19532199999992,209.49558320799997,209.48960662499996,down,1,0.5984937499999887,None,2,1,001,2023-11-27_10h58.50.073,Final_Project,2023.1.3,None,
45,45,0,90,1,210.10983583299992,211.09769779199996,211.10574024999994,211.59573312499992,211.59573312499992,211.895156917,211.889768958,up,1,0.44014466699991317,None,0,1,001,2023-11-27_10h58.50.073,Final_Project,2023.1.3,None,
0,45,1,91,0,212.35513366700002,213.33912366699997,213.34546949999992,213.8277865,213.83982404199992,214.13979041699997,214.127907833,down,1,0.4908359159999236,None,1,1,001,2023-11-27_10h58.50.073,Final_Project,2023.1.3,None,
45,46,0,92,1,214.65456616699998,215.63917279199995,215.64553054199996,216.12793395799997,216.13982433299998,216.43983374999993,216.42928204199995,up,1,0.4669629159999431,None,0,1,001,2023-11-27_10h58.50.073,Final_Project,2023.1.3,None,
0,46,1,93,0,216.92266599999994,217.90599487499992,217.91226391700002,218.39496399999996,218.40671470799998,218.70662766700002,218.69499083300002,down,1,0.4113311659999681,None,3,1,001,2023-11-27_10h58.50.073,Final_Project,2023.1.3,None,
45,47,0,94,1,219.13820924999993,220.12274591699997,220.12920829199993,220.6116609999999,220.623517708,220.92347895799992,220.91213504199993,up,0,0.7856882079998968,None,2,1,001,2023-11-27_10h58.50.073,Final_Project,2023.1.3,None,
0,47,1,95,0,221.72689220799998,222.714802417,222.72281837499997,223.21269362499993,223.21269362499993,223.511968958,223.50687937499993,down,1,0.4316799580000179,None,-2,1,001,2023-11-27_10h58.50.073,Final_Project,2023.1.3,None,
45,48,0,96,1,223.96016391699993,224.94835875,224.95626770799993,225.446197708,225.446197708,225.74641966699994,225.74031483299996,down,1,0.3804576669999733,None,-2,1,001,2023-11-27_10h58.50.073,Final_Project,2023.1.3,None,
0,48,1,97,0,226.14320566699996,227.13222324999992,227.139733042,227.629906,227.629906,227.92929916699995,227.9237771669999,up,0,0.36784016599995084,None,-2,1,001,2023-11-27_10h58.50.073,Final_Project,2023.1.3,None,
0,49,0,98,0,228.32143858299992,229.30643475,229.31242129199995,229.79483429200002,229.80715291699994,230.10707208299993,230.095468417,up,1,0.2837752079999518,None,0,1,001,2023-11-27_10h58.50.073,Final_Project,2023.1.3,None,
45,49,1,99,1,230.406112667,231.38983229199994,231.39616354199995,231.87832287499998,231.89048020799999,232.190626125,232.17917391699996,up,1,0.4163352919999852,None,0,1,001,2023-11-27_10h58.50.073,Final_Project,2023.1.3,None,
45,50,0,100,1,232.62174599999992,233.60660604199995,233.61285675,234.09422566699993,234.10728766699992,234.407195,234.395638458,down,1,0.3168154579999509,None,4,1,001,2023-11-27_10h58.50.073,Final_Project,2023.1.3,None,
0,50,1,101,0,234.74006370799998,235.7233319999999,235.72933358299997,236.21251324999992,236.22392316699995,236.52385166699992,236.51317512499998,up,0,0.4570443750000095,None,1,1,001,2023-11-27_10h58.50.073,Final_Project,2023.1.3,None,
0,51,0,102,0,237.0049775829999,237.99009229199999,237.99644141699991,238.478201958,238.490704833,238.79080612500002,238.780783875,up,1,0.306365540999991,None,0,1,001,2023-11-27_10h58.50.073,Final_Project,2023.1.3,None,
45,51,1,103,1,239.12206370799993,240.10686095799997,240.11319145799996,240.59572241699993,240.60758345800002,240.90752929199994,240.89665483299996,down,0,0.6707846670000208,None,0,1,001,2023-11-27_10h58.50.073,Final_Project,2023.1.3,None,
0,52,0,104,0,241.59413233299995,242.58260337499996,242.59027774999993,243.08032083299997,243.08032083299997,243.37976912499994,243.37422800000002,up,1,0.4722908329999882,None,0,1,001,2023-11-27_10h58.50.073,Final_Project,2023.1.3,None,
45,52,1,105,1,243.87292287499997,244.85689341699992,244.86334991699994,245.345678292,245.35763891699992,245.65773941700002,245.6463793329999,up,1,0.4498367919999282,None,0,1,001,2023-11-27_10h58.50.073,Final_Project,2023.1.3,None,
0,53,0,106,0,246.1223225,247.10708791699994,247.113089542,247.595830375,247.60771958299995,247.90761604199997,247.89682604199993,up,1,0.36681991599994035,None,0,1,001,2023-11-27_10h58.50.073,Final_Project,2023.1.3,None,
45,53,1,107,1,248.290657667,249.273840125,249.27974741699995,249.76185133299998,249.78118999999992,250.07447183299996,250.08053966699993,down,1,1.008036082999979,None,2,1,001,2023-11-27_10h58.50.073,Final_Project,2023.1.3,None,
45,54,0,108,1,251.106177625,252.09060108300002,252.09689054199998,252.57914712499996,252.5912522499999,252.89137725,252.87944908299994,down,1,0.5609984159999613,None,-5,1,001,2023-11-27_10h58.50.073,Final_Project,2023.1.3,None,
0,54,1,109,0,253.47348849999992,254.45739712499994,254.46380075000002,254.94544408299998,254.95798779199993,255.258121458,255.24631904199998,up,1,0.5013470420000203,None,0,1,001,2023-11-27_10h58.50.073,Final_Project,2023.1.3,None,
0,55,0,110,0,255.77778516699993,256.76572091699995,256.774137417,257.264174625,257.264174625,257.563595708,257.558093792,down,1,0.3616332080000575,None,4,1,001,2023-11-27_10h58.50.073,Final_Project,2023.1.3,None,
45,55,1,111,1,257.94025675,258.92433825,258.93060879199993,259.41286487499997,259.42482770799995,259.72487887499994,259.7128944169999,up,1,0.3567242909999777,None,0,1,001,2023-11-27_10h58.50.073,Final_Project,2023.1.3,None,
45,56,0,112,1,260.1072275419999,261.0902867919999,261.095910958,261.579556917,261.59163483299994,261.891514625,261.879824792,up,1,0.45586324999999306,None,0,1,001,2023-11-27_10h58.50.073,Final_Project,2023.1.3,None,
0,56,1,113,0,262.36172187499994,263.349900833,263.357811708,263.848037417,263.848037417,264.14717004199997,264.14163029199995,up,1,0.555901748999986,None,0,1,001,2023-11-27_10h58.50.073,Final_Project,2023.1.3,None,
45,57,0,114,1,264.723567958,265.70790049999994,265.713831583,266.19651175,266.20847916699995,266.5084855829999,266.4966153749999,down,0,0.3752775409999458,None,0,1,001,2023-11-27_10h58.50.073,Final_Project,2023.1.3,None,
0,57,1,115,0,266.907110375,267.89111208299994,267.897413625,268.380505333,268.3917859999999,268.691757875,268.681067,up,1,0.46916491599995425,None,0,1,001,2023-11-27_10h58.50.073,Final_Project,2023.1.3,None,
0,58,0,116,0,269.17786675,270.16647449999994,270.17467129199997,270.6646089579999,270.6646089579999,270.96416991699994,270.9586637499999,up,1,0.31457145799993214,None,0,1,001,2023-11-27_10h58.50.073,Final_Project,2023.1.3,None,
45,58,1,117,1,271.29536499999995,272.2834977499999,272.29135795799994,272.7819419169999,272.7819419169999,273.08133220799994,273.07547120799995,down,0,0.5343493330000229,None,0,1,001,2023-11-27_10h58.50.073,Final_Project,2023.1.3,None,
45,59,0,118,1,273.62962725,274.61675454199997,274.624828708,275.114354542,275.114354542,275.4148285829999,275.4086820829999,down,0,0.36038716600000953,None,0,1,001,2023-11-27_10h58.50.073,Final_Project,2023.1.3,None,
0,59,1,119,0,275.790928042,276.775016875,276.781395,277.263747708,277.275439,277.5754788329999,277.5640898329999,up,1,0.36732150000000274,None,0,1,001,2023-11-27_10h58.50.073,Final_Project,2023.1.3,None,
45,60,0,120,1,277.9623405,278.95074391699995,278.9583537919999,279.448407333,279.448407333,279.74708666699996,279.742093833,down,1,0.6530220409999856,None,3,1,001,2023-11-27_10h58.50.073,Final_Project,2023.1.3,None,
0,60,1,121,0,280.423027833,281.40839425,281.414868542,281.897476,281.90898908299994,282.20903229199996,282.197051333,up,1,0.44366799900001297,None,0,1,001,2023-11-27_10h58.50.073,Final_Project,2023.1.3,None,
45,61,0,122,1,282.67450670799997,283.65838795799993,283.664833542,284.14732608299994,284.159182083,284.45898920799993,284.44816325,down,1,0.505956165999919,None,3,1,001,2023-11-27_10h58.50.073,Final_Project,2023.1.3,None,
0,61,1,123,0,284.979432375,285.9674662499999,285.97523054199996,286.464872917,286.464872917,286.764150708,286.75916708299997,down,1,0.5023343749999185,None,-4,1,001,2023-11-27_10h58.50.073,Final_Project,2023.1.3,None,
45,62,0,124,1,287.30922395799996,288.291993917,288.29823691699994,288.78070987499996,288.79246254199995,289.092586667,289.081708208,down,1,0.6160136250000505,None,1,1,001,2023-11-27_10h58.50.073,Final_Project,2023.1.3,None,
0,62,1,125,0,289.723610042,290.70874474999994,290.71532749999994,291.1976794579999,291.209343,291.50911029199995,291.49835825,down,1,0.6017584579999493,None,-5,1,001,2023-11-27_10h58.50.073,Final_Project,2023.1.3,None,
0,63,0,126,0,292.1297354999999,293.11782341699995,293.125504708,293.61543466699993,293.61543466699993,293.914588125,293.9094434169999,up,1,0.2955524169999535,None,0,1,001,2023-11-27_10h58.50.073,Final_Project,2023.1.3,None,
45,63,1,127,1,294.230209542,295.21784525,295.225670958,295.715462375,295.715462375,296.01445383299995,296.009559042,down,1,0.4884863329999689,None,1,1,001,2023-11-27_10h58.50.073,Final_Project,2023.1.3,None,
45,64,0,128,1,296.5236407499999,297.509008417,297.51498270799993,297.9978044999999,298.009591625,298.309713042,298.29793204199996,down,1,0.4998812919999409,None,-2,1,001,2023-11-27_10h58.50.073,Final_Project,2023.1.3,None,
0,64,1,129,0,298.8253166669999,299.8090243329999,299.81532908299994,300.2979954169999,300.30973141699997,300.60967541699995,300.598021208,down,1,0.4911436249999497,None,-5,1,001,2023-11-27_10h58.50.073,Final_Project,2023.1.3,None,
0,65,0,130,0,301.124617792,302.10913512499997,302.1154876669999,302.59781866699996,302.609742,302.9097268329999,302.89789704199995,up,0,0.4520012500000803,None,1,1,001,2023-11-27_10h58.50.073,Final_Project,2023.1.3,None,
45,65,1,131,1,303.37977516699993,304.3684277919999,304.375988,304.86614158299994,304.86614158299994,305.16496741699996,305.159858792,down,1,0.31825237399993966,None,-4,1,001,2023-11-27_10h58.50.073,Final_Project,2023.1.3,None,
45,66,0,132,1,305.5090047919999,306.49281029199994,306.498803125,306.981519875,306.99329349999994,307.293435167,307.28155004199994,down,0,0.4222512909999523,None,0,1,001,2023-11-27_10h58.50.073,Final_Project,2023.1.3,None,
0,66,1,133,0,307.7301745,308.7182345829999,308.726129917,309.216633042,309.216633042,309.51508658299997,309.51508658299997,down,1,0.546161457999915,None,-3,1,001,2023-11-27_10h58.50.073,Final_Project,2023.1.3,None,
0,67,0,134,0,310.07990070799997,311.06822524999995,311.076175875,311.56670895799994,311.56670895799994,311.866004375,311.86023654199994,up,0,0.36566145799997685,None,-2,1,001,2023-11-27_10h58.50.073,Final_Project,2023.1.3,None,
45,67,1,135,1,312.2478793749999,313.235140667,313.24299162499995,313.73290962499993,313.73290962499993,314.03190004199996,314.0268035419999,down,0,0.3502680410000494,None,0,1,001,2023-11-27_10h58.50.073,Final_Project,2023.1.3,None,
0,68,0,136,0,314.39640375,315.3847962919999,315.393055375,315.882508833,315.882508833,316.182606042,316.17702504199997,down,1,0.4002749580000682,None,-4,1,001,2023-11-27_10h58.50.073,Final_Project,2023.1.3,None,
45,68,1,137,1,316.5983084999999,317.584999875,317.593157875,318.08309329199994,318.08309329199994,318.3825809169999,318.377090417,down,0,0.4206400829999666,None,0,1,001,2023-11-27_10h58.50.073,Final_Project,2023.1.3,None,
0,69,0,138,0,318.826083875,319.80987237499994,319.81648837499995,320.298740417,320.31046979199994,320.610461042,320.598778208,down,0,0.39001133299996127,None,0,1,001,2023-11-27_10h58.50.073,Final_Project,2023.1.3,None,
45,69,1,139,1,321.02578237499995,322.009787708,322.01571949999993,322.49871770799996,322.51073570799997,322.810626833,322.800410792,down,1,0.44997158299986495,None,-4,1,001,2023-11-27_10h58.50.073,Final_Project,2023.1.3,None,
45,70,0,140,1,323.27619441699994,324.2600165,324.2663602079999,324.74779125,324.76692045799996,325.06070154199995,325.06070154199995,down,0,0.5665447499999345,None,0,1,001,2023-11-27_10h58.50.073,Final_Project,2023.1.3,None,
0,70,1,141,0,325.64229520799995,326.626745542,326.63322812499996,327.114507,327.12722395799995,327.4274899999999,327.41603762499994,down,1,0.5538783749999538,None,-3,1,001,2023-11-27_10h58.50.073,Final_Project,2023.1.3,None,
45,71,0,142,1,327.99786166699994,328.9853271669999,328.993524083,329.477343625,329.4835479999999,329.7828945829999,329.77748224999993,down,1,0.35407295799996064,None,-5,1,001,2023-11-27_10h58.50.073,Final_Project,2023.1.3,None,
0,71,1,143,0,330.1592647499999,331.14366095799994,331.14991324999994,331.63214208299996,331.64418975,331.944188125,331.933040042,down,1,0.4502992919999542,None,-4,1,001,2023-11-27_10h58.50.073,Final_Project,2023.1.3,None,
0,72,0,144,0,332.4102449999999,333.39359975,333.399954375,333.882250042,333.894234792,334.194379625,334.18316925,down,1,0.3865664159999369,None,-2,1,001,2023-11-27_10h58.50.073,Final_Project,2023.1.3,None,
45,72,1,145,1,334.5977446669999,335.58636087499997,335.59294991699994,336.083364125,336.083364125,336.382517958,336.377665042,up,0,0.34085495800002263,None,3,1,001,2023-11-27_10h58.50.073,Final_Project,2023.1.3,None,
0,73,0,146,0,336.743146625,337.727221792,337.73360479199994,338.215747417,338.227816167,338.527838458,338.516564333,down,1,0.49321499899997434,None,4,1,001,2023-11-27_10h58.50.073,Final_Project,2023.1.3,None,
45,73,1,147,1,339.04354225,340.02723116699997,340.03317145799997,340.51583945799996,340.527866917,340.82793270799993,340.81624324999996,down,1,0.4343035829999735,None,-4,1,001,2023-11-27_10h58.50.073,Final_Project,2023.1.3,None,
45,74,0,148,1,341.281749292,342.268890875,342.27732516699996,342.767376667,342.767376667,343.06612499999994,343.061257125,up,1,0.25444641599995066,None,0,1,001,2023-11-27_10h58.50.073,Final_Project,2023.1.3,None,
0,74,1,149,0,343.3435065,344.32742666699994,344.333743958,344.81594270799997,344.82799583299993,345.1281460419999,345.116468167,up,1,0.4998404999998911,None,0,1,001,2023-11-27_10h58.50.073,Final_Project,2023.1.3,None,
45,75,0,150,1,345.643727042,346.62743183299995,346.63368649999995,347.115340458,347.12796125,347.4281142919999,347.41641879199994,up,1,0.35460412499992344,None,0,1,001,2023-11-27_10h58.50.073,Final_Project,2023.1.3,None,
0,75,1,151,0,347.798570875,348.786758792,348.794281833,349.28393033299994,349.28393033299994,349.58314741699996,349.578235167,up,0,0.20399633299996367,None,1,1,001,2023-11-27_10h58.50.073,Final_Project,2023.1.3,None,
45,76,0,152,1,349.81087379199994,350.794259583,350.800734292,351.283223333,351.295050792,351.595028125,351.583088417,up,0,0.12781104099997265,None,1,1,001,2023-11-27_10h58.50.073,Final_Project,2023.1.3,None,
0,76,1,153,0,351.74363299999993,352.72762887499994,352.73398220799993,353.216299792,353.228416542,353.528338042,353.517417875,up,1,0.32949537499996495,None,0,1,001,2023-11-27_10h58.50.073,Final_Project,2023.1.3,None,
45,77,0,154,1,353.87768541699995,354.861136,354.86747445799995,355.34991583299995,355.36178104199996,355.66172741699995,355.650310083,up,1,0.33329458299999715,None,0,1,001,2023-11-27_10h58.50.073,Final_Project,2023.1.3,None,
0,77,1,155,0,356.01101337499995,356.99362937499995,356.999288708,357.48342725,357.49501662499995,357.795201583,357.7841039169999,up,1,0.2797115409999833,None,0,1,001,2023-11-27_10h58.50.073,Final_Project,2023.1.3,None,
45,78,0,156,1,358.094759417,359.077972542,359.083902458,359.56660975,359.57842745799996,359.878675208,359.8668930829999,up,1,0.41628320799998164,None,0,1,001,2023-11-27_10h58.50.073,Final_Project,2023.1.3,None,
0,78,1,157,0,360.31022966699993,361.29473033299996,361.30064641699994,361.7840715,361.79531433299996,362.09551083299993,362.08449866699993,down,1,0.5033688329999677,None,-5,1,001,2023-11-27_10h58.50.073,Final_Project,2023.1.3,None,
0,79,0,158,0,362.61512545799997,363.6032835,363.61144149999996,364.10137895799994,364.10137895799994,364.401077792,364.395351292,up,0,0.6195686250000563,None,3,1,001,2023-11-27_10h58.50.073,Final_Project,2023.1.3,None,
45,79,1,159,1,365.04409229199996,366.02829262499995,366.03460974999996,366.51698262499997,366.52882829199996,366.82883583299997,366.8175501249999,down,1,0.3265747499999634,None,-5,1,001,2023-11-27_10h58.50.073,Final_Project,2023.1.3,None,
0,80,0,160,0,367.176691375,368.161577458,368.167859917,368.6502812499999,368.662257125,368.9622536669999,368.95083249999993,down,1,0.4221442919999845,None,-3,1,001,2023-11-27_10h58.50.073,Final_Project,2023.1.3,None,
45,80,1,161,1,369.398569833,370.386914583,370.395215625,370.8843929579999,370.8843929579999,371.18495937499995,371.179103833,up,1,0.4662423329999683,None,0,1,001,2023-11-27_10h58.50.073,Final_Project,2023.1.3,None,
0,81,0,162,0,371.66567591699993,372.654388875,372.661945875,373.1512805,373.1512805,373.4506393329999,373.4457333749999,up,1,0.25252708300001814,None,0,1,001,2023-11-27_10h58.50.073,Final_Project,2023.1.3,None,
45,81,1,163,1,373.7281812499999,374.71192741699997,374.71832333299994,375.2002749579999,375.212494375,375.512554917,375.50118429200006,down,1,0.4336831660001508,None,4,1,001,2023-11-27_10h58.50.073,Final_Project,2023.1.3,None,
0,82,0,164,0,375.96242637499995,376.9453277079999,376.95168754199995,377.43338783299987,377.45203812499994,377.7457825419999,377.7457825419999,up,1,0.4458490830000983,None,0,1,001,2023-11-27_10h58.50.073,Final_Project,2023.1.3,None,
45,82,1,165,1,378.21097870799986,379.195310458,379.2017935829999,379.6833496249999,379.6959629579999,379.9960013749999,379.98416429200006,up,1,0.4668008750001036,None,0,1,001,2023-11-27_10h58.50.073,Final_Project,2023.1.3,None,
0,83,0,166,0,380.478210667,381.4621118329999,381.46846441699995,381.9506369169999,381.962777792,382.2628614999999,382.25189754200005,up,1,0.19924862499999563,None,0,1,001,2023-11-27_10h58.50.073,Final_Project,2023.1.3,None,
45,83,1,167,1,382.4771517500001,383.4621965419999,383.4685461669999,383.95026766699993,383.96284841700003,384.262904875,384.2517634999999,up,1,0.26651045799997064,None,0,1,001,2023-11-27_10h58.50.073,Final_Project,2023.1.3,None,
0,84,0,168,0,384.545483292,385.5289453329999,385.535239542,386.01726358299993,386.02958691699996,386.3296769169999,386.3177244169999,down,1,0.6608704159999661,None,2,1,001,2023-11-27_10h58.50.073,Final_Project,2023.1.3,None,
45,84,1,169,1,387.0120516669999,387.99567845799993,388.0020079579999,388.483986708,388.4963157079999,388.79642108300004,388.7853628329999,down,1,0.517490291999934,None,4,1,001,2023-11-27_10h58.50.073,Final_Project,2023.1.3,None,
45,85,0,170,1,389.333694167,390.3210167499999,390.329127167,390.81917124999995,390.81917124999995,391.1182523749999,391.1131964169999,up,1,0.38549224999985654,None,0,1,001,2023-11-27_10h58.50.073,Final_Project,2023.1.3,None,
0,85,1,171,0,391.52850087499996,392.51256354199995,392.5184992919999,393.00049149999995,393.0131926669999,393.31323462499995,393.302323292,up,1,0.543041498999969,None,0,1,001,2023-11-27_10h58.50.073,Final_Project,2023.1.3,None,
45,86,0,172,1,393.87829191700007,394.8625985829999,394.8689085419999,395.350970167,395.36319712499994,395.6631943749999,395.65147512499993,up,1,0.6326461250001785,None,0,1,001,2023-11-27_10h58.50.073,Final_Project,2023.1.3,None,
0,86,1,173,0,396.3118817499999,397.2960847919999,397.3023774999999,397.78397333299995,397.79652854200003,398.0968123329999,398.08496949999994,down,1,0.4668242080000482,None,-4,1,001,2023-11-27_10h58.50.073,Final_Project,2023.1.3,None,
0,87,0,174,0,398.57875483299995,399.56304216700005,399.569005542,400.05114312499995,400.06348008300006,400.36353904199996,400.35192479199986,up,1,0.27082654100001946,None,0,1,001,2023-11-27_10h58.50.073,Final_Project,2023.1.3,None,
45,87,1,175,1,400.64944520799986,401.6385761249999,401.64628004199994,402.136095417,402.136095417,402.43565254200007,402.43023808299995,up,0,0.5563980419998416,None,1,1,001,2023-11-27_10h58.50.073,Final_Project,2023.1.3,None,
45,88,0,176,1,403.01091258299994,403.9963077499999,404.0025909579999,404.4850973329999,404.497058917,404.797032125,404.7858866669999,up,1,0.5220006660000536,None,0,1,001,2023-11-27_10h58.50.073,Final_Project,2023.1.3,None,
0,88,1,177,0,405.3341667499999,406.3212968329999,406.32968845799996,406.81928633300004,406.81928633300004,407.11941312499994,407.11376537499996,up,0,0.5458037080001077,None,-2,1,001,2023-11-27_10h58.50.073,Final_Project,2023.1.3,None,
0,89,0,178,0,407.68375520799987,408.67173279200006,408.67981020799994,409.1690516670001,409.1690516670001,409.4696815,409.46382833300004,down,1,0.4686490410000488,None,-3,1,001,2023-11-27_10h58.50.073,Final_Project,2023.1.3,None,
45,89,1,179,1,409.96247399999993,410.9465969579999,410.95292870799994,411.43544391699993,411.4471337499999,411.74712420800006,411.73584400000004,down,1,0.4664092080000728,None,4,1,001,2023-11-27_10h58.50.073,Final_Project,2023.1.3,None,
45,90,0,180,1,412.22916766699996,413.21322358299994,413.219528417,413.70183625000004,413.71395166699995,414.01391225,414.00261554200006,up,1,0.5845242079998343,None,0,1,001,2023-11-27_10h58.50.073,Final_Project,2023.1.3,None,
0,90,1,181,0,414.61739487499995,415.605724,415.61337179199995,416.10347587499996,416.10347587499996,416.4025979999999,416.397300417,up,1,0.21257025000011254,None,0,1,001,2023-11-27_10h58.50.073,Final_Project,2023.1.3,None,
45,91,0,182,1,416.633369292,417.6226026669999,417.63020883299987,418.1191625419999,418.1191625419999,418.41968154200003,418.41414699999996,down,1,0.4856870410000056,None,3,1,001,2023-11-27_10h58.50.073,Final_Project,2023.1.3,None,
0,91,1,183,0,418.9291584580001,419.913539333,419.919872083,420.4020432079999,420.41421308300005,420.71417729199993,420.702419167,up,1,0.44392229099992164,None,0,1,001,2023-11-27_10h58.50.073,Final_Project,2023.1.3,None,
0,92,0,184,0,421.1795587920001,422.163597125,422.1700747499999,422.65288766699996,422.66419158300005,422.96418095800004,422.95333341700007,down,1,0.4723144169998932,None,4,1,001,2023-11-27_10h58.50.073,Final_Project,2023.1.3,None,
45,92,1,185,1,423.45237795799994,424.4396313330001,424.447122625,424.9363357499999,424.9363357499999,425.2359403749999,425.23105383300003,up,1,0.2901554999999689,None,0,1,001,2023-11-27_10h58.50.073,Final_Project,2023.1.3,None,
45,93,0,186,1,425.54592241699993,426.5303818749999,426.53672241699996,427.019079958,427.03107183299994,427.33123191699997,427.3196607919999,up,1,0.37089337500003694,None,0,1,001,2023-11-27_10h58.50.073,Final_Project,2023.1.3,None,
0,93,1,187,0,427.71836362499994,428.7056756669999,428.7138627080001,429.204092083,429.204092083,429.50329283299993,429.4978625419999,up,1,0.21139820799987774,None,0,1,001,2023-11-27_10h58.50.073,Final_Project,2023.1.3,None,
45,94,0,188,1,429.731397042,430.713863917,430.7201554579999,431.20270237499994,431.2146579999999,431.514586042,431.50317916699987,up,1,0.2507969990000447,None,0,1,001,2023-11-27_10h58.50.073,Final_Project,2023.1.3,None,
0,94,1,189,0,431.78507225,432.772463667,432.78065454199987,433.27130820799994,433.27130820799994,433.57052891700005,433.5647449999999,up,0,0.18653774999995676,None,1,1,001,2023-11-27_10h58.50.073,Final_Project,2023.1.3,None,
0,95,0,190,0,433.7801032919999,434.7640227919999,434.770434625,435.25254804199994,435.26473120800006,435.564753333,435.55303808300005,up,1,0.13408091599978889,None,0,1,001,2023-11-27_10h58.50.073,Final_Project,2023.1.3,None,
45,95,1,191,1,435.71930554200003,436.7067192919999,436.7143060000001,437.203803375,437.203803375,437.5036406669999,437.49797845800003,up,1,0.20302179199995862,None,0,1,001,2023-11-27_10h58.50.073,Final_Project,2023.1.3,None,
0,96,0,192,0,437.7301682079999,438.71432141700006,438.72059345799994,439.2033624999999,439.21474462499987,439.5147938329999,439.5033564170001,up,0,0.01687637500015171,None,-4,1,001,2023-11-27_10h58.50.073,Final_Project,2023.1.3,None,
45,96,1,193,1,439.54807133300005,440.5308930829999,440.53718649999996,441.019556792,441.031552833,441.331683958,441.31963825,up,1,0.5469724999999244,None,0,1,001,2023-11-27_10h58.50.073,Final_Project,2023.1.3,None,
45,97,0,194,1,441.8973108749999,442.88109575,442.8874256249999,443.37002162499994,443.38166024999987,443.681605792,443.67036966699993,up,1,0.3778394579998121,None,0,1,001,2023-11-27_10h58.50.073,Final_Project,2023.1.3,None,
0,97,1,195,0,444.07986808300006,445.0644830829999,445.07094337500007,445.55294941700004,445.56508095799995,445.865079167,445.85350612499997,down,1,0.30653783299987936,None,-4,1,001,2023-11-27_10h58.50.073,Final_Project,2023.1.3,None,
0,98,0,196,0,446.186518708,447.173760292,447.18122500000004,447.67090375,447.67090375,447.97060962499995,447.96525033299986,up,1,0.42217395799991664,None,0,1,001,2023-11-27_10h58.50.073,Final_Project,2023.1.3,None,
45,98,1,197,1,448.41366741699994,449.3978730829999,449.40422083299995,449.8866337919999,449.89857533300005,450.19862149999994,450.18659912499993,up,1,0.42605795799988755,None,0,1,001,2023-11-27_10h58.50.073,Final_Project,2023.1.3,None,
0,99,0,198,0,450.647454167,451.631361042,451.6372677919999,452.120270375,452.1321157919999,452.4320089999999,452.42028974999994,down,1,0.3048620829998754,None,3,1,001,2023-11-27_10h58.50.073,Final_Project,2023.1.3,None,
45,99,1,199,1,452.751574292,453.7400762919999,453.748084542,454.237803708,454.237803708,454.5370722079999,454.53216058299995,up,1,0.402792833000035,None,0,1,001,2023-11-27_10h58.50.073,Final_Project,2023.1.3,None,
