orient,trials.thisRepN,trials.thisTrialN,trials.thisN,trials.thisIndex,polygon.started,polygon_2.started,polygon.stopped,polygon_2.stopped,grating.started,key_resp.started,grating.stopped,key_resp.keys,key_resp.corr,key_resp.rt,key_resp.duration,tilt,participant,session,date,expName,psychopyVersion,frameRate,
45,0,0,0,1,66.21022880001692,67.20727280003484,67.22372240002733,67.73478390002856,67.73478390002856,68.00727380003082,68.04029630002333,up,1,1.292625300004147,None,0,Aahana,001,2023-11-28_19h39.11.555,Final_Project,2023.1.3,59.803140014579405,
0,0,1,1,0,69.32372709998162,70.32382460002555,70.32382460002555,70.82387670001481,70.82387670001481,71.12378219998209,71.12378219998209,up,0,1.052266700018663,None,2,Aahana,001,2023-11-28_19h39.11.555,Final_Project,2023.1.3,59.803140014579405,
0,1,0,2,0,72.20725650002714,73.20721880003111,73.20721880003111,73.7074310000171,73.7074310000171,74.00699530000566,74.00699530000566,down,1,1.469706000003498,None,-2,Aahana,001,2023-11-28_19h39.11.555,Final_Project,2023.1.3,59.803140014579405,
45,1,1,3,1,75.50735219998751,76.50756860000547,76.50756860000547,77.0070115000126,76.99050509999506,77.30707789998269,77.29023580002831,down,0,2.601021700014826,None,0,Aahana,001,2023-11-28_19h39.11.555,Final_Project,2023.1.3,59.803140014579405,
0,2,0,4,0,79.94042990001617,80.94038490002276,80.94038490002276,81.44049190002261,81.44049190002261,81.74031170003582,81.74031170003582,up,1,0.6701675999793224,None,0,Aahana,001,2023-11-28_19h39.11.555,Final_Project,2023.1.3,59.803140014579405,
45,2,1,5,1,82.44004140002653,83.44039830000838,83.44039830000838,83.94064580003032,83.94064580003032,84.24018150003394,84.24018150003394,up,0,1.0172856000135653,None,1,Aahana,001,2023-11-28_19h39.11.555,Final_Project,2023.1.3,59.803140014579405,
0,3,0,6,0,85.27372980001383,86.27361949998885,86.27361949998885,86.77390869997907,86.77390869997907,87.07379669998772,87.07379669998772,down,1,0.7418470000266097,None,4,Aahana,001,2023-11-28_19h39.11.555,Final_Project,2023.1.3,59.803140014579405,
45,3,1,7,1,87.84047340002144,88.84030739997979,88.84030739997979,89.34060840000166,89.34060840000166,89.640533400001,89.640533400001,down,1,0.6665199999697506,None,4,Aahana,001,2023-11-28_19h39.11.555,Final_Project,2023.1.3,59.803140014579405,
45,4,0,8,1,90.32385600003181,91.32385059999069,91.32385059999069,91.82403000001796,91.82403000001796,92.12392360001104,92.12392360001104,up,1,0.6678795000188984,None,0,Aahana,001,2023-11-28_19h39.11.555,Final_Project,2023.1.3,59.803140014579405,
0,4,1,9,0,92.82389150001109,93.82364990003407,93.82364990003407,94.32366709999042,94.32366709999042,94.6237919999985,94.6237919999985,down,1,0.7877447999780998,None,-5,Aahana,001,2023-11-28_19h39.11.555,Final_Project,2023.1.3,59.803140014579405,
0,5,0,10,0,95.44052990002092,96.4404756000149,96.4404756000149,96.94044670002768,96.94044670002768,97.24055109999608,97.24055109999608,down,1,0.3966054000193253,None,-4,Aahana,001,2023-11-28_19h39.11.555,Final_Project,2023.1.3,59.803140014579405,
45,5,1,11,1,97.6572654999909,98.65718510001898,98.65718510001898,99.15732360002585,99.15732360002585,99.45734229998197,99.45734229998197,up,1,0.6134273000061512,None,0,Aahana,001,2023-11-28_19h39.11.555,Final_Project,2023.1.3,59.803140014579405,
45,6,0,12,1,100.09060180000961,101.09041870001238,101.09041870001238,101.59040769998683,101.59040769998683,101.8903623999795,101.8903623999795,up,1,0.6062624999904074,None,0,Aahana,001,2023-11-28_19h39.11.555,Final_Project,2023.1.3,59.803140014579405,
0,6,1,13,0,102.52370730001712,103.52385140000843,103.52385140000843,104.02427659998648,104.02427659998648,104.32394560001558,104.32394560001558,down,1,0.49753690004581586,None,2,Aahana,001,2023-11-28_19h39.11.555,Final_Project,2023.1.3,59.803140014579405,
0,7,0,14,0,104.84048240003176,105.840257200005,105.840257200005,106.34053899999708,106.34053899999708,106.64061960001709,106.64061960001709,up,1,0.6808974000159651,None,0,Aahana,001,2023-11-28_19h39.11.555,Final_Project,2023.1.3,59.803140014579405,
45,7,1,15,1,107.34017789998325,108.34031830000458,108.34031830000458,108.84050869999919,108.84050869999919,109.14044719998492,109.14044719998492,down,1,0.5501371000427753,None,-2,Aahana,001,2023-11-28_19h39.11.555,Final_Project,2023.1.3,59.803140014579405,
0,8,0,16,0,109.70722129999194,110.70730250002816,110.70730250002816,111.20741919998545,111.20741919998545,111.50727390003158,111.50727390003158,down,1,0.5605827000108548,None,-5,Aahana,001,2023-11-28_19h39.11.555,Final_Project,2023.1.3,59.803140014579405,
45,8,1,17,1,112.09068610001123,113.09054429997923,113.09054429997923,113.59055700001772,113.59055700001772,113.89027410000563,113.89027410000563,up,1,0.8478338000131771,None,0,Aahana,001,2023-11-28_19h39.11.555,Final_Project,2023.1.3,59.803140014579405,
0,9,0,18,0,114.75727950001601,115.75709129997995,115.75709129997995,116.25740420003422,116.25740420003422,116.55735750001622,116.55735750001622,up,1,0.6398458000039682,None,0,Aahana,001,2023-11-28_19h39.11.555,Final_Project,2023.1.3,59.803140014579405,
45,9,1,19,1,117.22386239998741,118.2239279000205,118.2239279000205,118.72409929998685,118.72409929998685,119.02399419998983,119.02399419998983,down,0,1.7897233000257984,None,0,Aahana,001,2023-11-28_19h39.11.555,Final_Project,2023.1.3,59.803140014579405,
0,10,0,20,0,120.84060200001113,121.84048519999487,121.84048519999487,122.34042100002989,122.34042100002989,122.64028920000419,122.64028920000419,up,1,0.7712123999954201,None,0,Aahana,001,2023-11-28_19h39.11.555,Final_Project,2023.1.3,59.803140014579405,
45,10,1,21,1,123.44045850000111,124.44055599998683,124.44055599998683,124.94059740001103,124.94059740001103,125.24055630003568,125.24055630003568,down,1,0.4129644999629818,None,-2,Aahana,001,2023-11-28_19h39.11.555,Final_Project,2023.1.3,59.803140014579405,
0,11,0,22,0,125.67384850000963,126.67392720002681,126.67392720002681,127.17411770002218,127.17411770002218,127.47404910001205,127.47404910001205,up,1,0.6032435999950394,None,0,Aahana,001,2023-11-28_19h39.11.555,Final_Project,2023.1.3,59.803140014579405,
45,11,1,23,1,128.10721819999162,129.10733850003453,129.10733850003453,129.60764559998643,129.60764559998643,129.90741129999515,129.90741129999515,down,1,0.4785517000127584,None,-3,Aahana,001,2023-11-28_19h39.11.555,Final_Project,2023.1.3,59.803140014579405,
0,12,0,24,0,130.40732280001976,131.40728139999555,131.40728139999555,131.90735080000013,131.90735080000013,132.207388299983,132.207388299983,down,1,0.8905594000243582,None,4,Aahana,001,2023-11-28_19h39.11.555,Final_Project,2023.1.3,59.803140014579405,
45,12,1,25,1,133.12391999998363,134.12391740002204,134.12391740002204,134.62408939999295,134.62408939999295,134.9239538999973,134.9239538999973,down,1,0.476506499981042,None,-5,Aahana,001,2023-11-28_19h39.11.555,Final_Project,2023.1.3,59.803140014579405,
0,13,0,26,0,135.42386700003408,136.42390950000845,136.42390950000845,136.92410629999358,136.92410629999358,137.22391430003336,137.22391430003336,up,1,0.47596379998140037,None,0,Aahana,001,2023-11-28_19h39.11.555,Final_Project,2023.1.3,59.803140014579405,
45,13,1,27,1,137.72392670001136,138.7237745000166,138.7237745000166,139.22433920000913,139.22433920000913,139.5240882000071,139.5240882000071,down,1,0.31503800000064075,None,-3,Aahana,001,2023-11-28_19h39.11.555,Final_Project,2023.1.3,59.803140014579405,
0,14,0,28,0,139.85732860001735,140.85740809998242,140.85740809998242,141.35734560003038,141.35734560003038,141.65792929998133,141.65792929998133,down,1,0.7174907000153325,None,2,Aahana,001,2023-11-28_19h39.11.555,Final_Project,2023.1.3,59.803140014579405,
45,14,1,29,1,142.40743359999033,143.40703000000212,143.40703000000212,143.90730830002576,143.90730830002576,144.20730710000498,144.20730710000498,up,1,0.579963400028646,None,0,Aahana,001,2023-11-28_19h39.11.555,Final_Project,2023.1.3,59.803140014579405,
0,15,0,30,0,144.80751760001294,145.80737420002697,145.80737420002697,146.30735269997967,146.30735269997967,146.60735489998478,146.60735489998478,up,1,0.6103542000055313,None,0,Aahana,001,2023-11-28_19h39.11.555,Final_Project,2023.1.3,59.803140014579405,
45,15,1,31,1,147.24040569999488,148.24072190001607,148.24072190001607,148.7403049999848,148.7403049999848,149.04047690000152,149.04047690000152,up,1,4.179772700008471,None,0,Aahana,001,2023-11-28_19h39.11.555,Final_Project,2023.1.3,59.803140014579405,
45,16,0,32,1,153.24039809999522,154.24037190002855,154.24037190002855,154.74040170002263,154.74040170002263,155.0404820999829,155.0404820999829,down,1,0.3633116999990307,None,-4,Aahana,001,2023-11-28_19h39.11.555,Final_Project,2023.1.3,59.803140014579405,
0,16,1,33,0,155.42389079998247,156.42390540003544,156.42390540003544,156.9242095000227,156.9242095000227,157.22406029998092,157.22406029998092,up,1,0.5798467000131495,None,0,Aahana,001,2023-11-28_19h39.11.555,Final_Project,2023.1.3,59.803140014579405,
45,17,0,34,1,157.82405510003446,158.8238558000303,158.8238558000303,159.32359450001968,159.32359450001968,159.6240549000213,159.6240549000213,up,1,2.067849999992177,None,0,Aahana,001,2023-11-28_19h39.11.555,Final_Project,2023.1.3,59.803140014579405,
0,17,1,35,0,161.72388920001686,162.72393320000265,162.72393320000265,163.22406600002432,163.22406600002432,163.523885600036,163.523885600036,down,1,0.4276988999918103,None,3,Aahana,001,2023-11-28_19h39.11.555,Final_Project,2023.1.3,59.803140014579405,
0,18,0,36,0,163.9740240999963,164.97404780000215,164.97404780000215,165.47433380002622,165.47433380002622,165.77383349998854,165.77383349998854,up,1,2.439683500037063,None,0,Aahana,001,2023-11-28_19h39.11.555,Final_Project,2023.1.3,59.803140014579405,
45,18,1,37,1,168.240625299979,169.2403648000327,169.2403648000327,169.74078200000804,169.74078200000804,170.04021030000877,170.04021030000877,up,0,0.6370432999683544,None,1,Aahana,001,2023-11-28_19h39.11.555,Final_Project,2023.1.3,59.803140014579405,
45,19,0,38,1,170.70763580000494,171.70748159999494,171.70748159999494,172.20753960002912,172.20753960002912,172.50732570001855,172.50732570001855,up,1,0.7182952999719419,None,0,Aahana,001,2023-11-28_19h39.11.555,Final_Project,2023.1.3,59.803140014579405,
0,19,1,39,0,173.25732390000485,174.25751279998804,174.25751279998804,174.7577820000006,174.7577820000006,175.05730129999574,175.05730129999574,up,1,1.1768647999851964,None,0,Aahana,001,2023-11-28_19h39.11.555,Final_Project,2023.1.3,59.803140014579405,
0,20,0,40,0,176.25745540001662,177.25733890000265,177.25733890000265,177.75732979999157,177.75732979999157,178.05738840001868,178.05738840001868,up,1,0.7318607000051998,None,0,Aahana,001,2023-11-28_19h39.11.555,Final_Project,2023.1.3,59.803140014579405,
45,20,1,41,1,178.80734990001656,179.80740470002638,179.80740470002638,180.30752450000728,180.30752450000728,180.60761960002128,180.60761960002128,down,0,0.9305240000248887,None,0,Aahana,001,2023-11-28_19h39.11.555,Final_Project,2023.1.3,59.803140014579405,
0,21,0,42,0,181.55712000001222,182.55732979997993,182.55732979997993,183.0575493000215,183.0575493000215,183.3573395999847,183.3573395999847,down,1,0.6007593999966048,None,2,Aahana,001,2023-11-28_19h39.11.555,Final_Project,2023.1.3,59.803140014579405,
45,21,1,43,1,183.99064520001411,184.99061009997968,184.99061009997968,185.4906758000143,185.4906758000143,185.79060649999883,185.79060649999883,down,1,0.46213559998432174,None,1,Aahana,001,2023-11-28_19h39.11.555,Final_Project,2023.1.3,59.803140014579405,
45,22,0,44,1,186.27413750003325,187.2741112000076,187.2741112000076,187.77415529999416,187.77415529999416,188.07393270003377,188.07393270003377,down,1,0.6256068000220694,None,4,Aahana,001,2023-11-28_19h39.11.555,Final_Project,2023.1.3,59.803140014579405,
0,22,1,45,0,188.72417589998804,189.72399919998134,189.72399919998134,190.2243283999851,190.2243283999851,190.52409760002047,190.52409760002047,down,1,0.583562100015115,None,-3,Aahana,001,2023-11-28_19h39.11.555,Final_Project,2023.1.3,59.803140014579405,
45,23,0,46,1,191.1243174999836,192.12412739999127,192.12412739999127,192.6241017000284,192.6241017000284,192.92416490003234,192.92416490003234,up,1,5.499174500000663,None,0,Aahana,001,2023-11-28_19h39.11.555,Final_Project,2023.1.3,59.803140014579405,
0,23,1,47,0,198.4407069000299,199.44045639998512,199.44045639998512,199.94079140003305,199.94079140003305,200.24065589997917,200.24065589997917,up,1,0.3146937999990769,None,0,Aahana,001,2023-11-28_19h39.11.555,Final_Project,2023.1.3,59.803140014579405,
45,24,0,48,1,200.5743370000273,201.57406369998353,201.57406369998353,202.07418009999674,202.07418009999674,202.373996099981,202.373996099981,up,1,1.3177404000307433,None,0,Aahana,001,2023-11-28_19h39.11.555,Final_Project,2023.1.3,59.803140014579405,
0,24,1,49,0,203.72411790001206,204.72373219998553,204.72373219998553,205.22400220000418,205.22400220000418,205.5242234999896,205.5242234999896,down,0,0.45382659998722374,None,0,Aahana,001,2023-11-28_19h39.11.555,Final_Project,2023.1.3,59.803140014579405,
0,25,0,50,0,206.00731559999986,207.007387700025,207.007387700025,207.50755029998254,207.50755029998254,207.8073956000153,207.8073956000153,down,1,0.24672559997998178,None,4,Aahana,001,2023-11-28_19h39.11.555,Final_Project,2023.1.3,59.803140014579405,
45,25,1,51,1,208.0743612999795,209.07406359998276,209.07406359998276,209.57420630002161,209.57420630002161,209.87411829998018,209.87411829998018,down,0,0.869032500020694,None,0,Aahana,001,2023-11-28_19h39.11.555,Final_Project,2023.1.3,59.803140014579405,
0,26,0,52,0,210.77398539998103,211.77406199998222,211.77406199998222,212.27398840000387,212.27398840000387,212.574042799999,212.574042799999,up,1,0.7752189000020735,None,0,Aahana,001,2023-11-28_19h39.11.555,Final_Project,2023.1.3,59.803140014579405,
45,26,1,53,1,213.37410630000522,214.37415340001462,214.37415340001462,214.87418149999576,214.87418149999576,215.17400370002724,215.17400370002724,down,0,0.9047531000105664,None,0,Aahana,001,2023-11-28_19h39.11.555,Final_Project,2023.1.3,59.803140014579405,
0,27,0,54,0,216.10752920003142,217.10758240002906,217.10758240002906,217.60761429998092,217.60761429998092,217.9071077000117,217.9071077000117,down,1,0.5981779000139795,None,3,Aahana,001,2023-11-28_19h39.11.555,Final_Project,2023.1.3,59.803140014579405,
45,27,1,55,1,218.52408290002495,219.52413289999822,219.52413289999822,220.0244473000057,220.0244473000057,220.32404129998758,220.32404129998758,up,1,0.7022485000197776,None,0,Aahana,001,2023-11-28_19h39.11.555,Final_Project,2023.1.3,59.803140014579405,
0,28,0,56,0,221.05750280001666,222.05751730001066,222.05751730001066,222.55764050001744,222.55764050001744,222.85749439999927,222.85749439999927,up,1,0.6929292000131682,None,0,Aahana,001,2023-11-28_19h39.11.555,Final_Project,2023.1.3,59.803140014579405,
45,28,1,57,1,223.57420849998016,224.5741973000113,224.5741973000113,225.07427560002543,225.07427560002543,225.3739097000216,225.3739097000216,down,1,0.45572879997780547,None,-3,Aahana,001,2023-11-28_19h39.11.555,Final_Project,2023.1.3,59.803140014579405,
45,29,0,58,1,225.8576158999931,226.85736189997988,226.85736189997988,227.3577344000223,227.3577344000223,227.65762220002944,227.65762220002944,up,1,0.689994900021702,None,0,Aahana,001,2023-11-28_19h39.11.555,Final_Project,2023.1.3,59.803140014579405,
0,29,1,59,0,228.37407389999134,229.37385139998514,229.37385139998514,229.8742174000363,229.8742174000363,230.1741321000154,230.1741321000154,up,1,0.5846629999577999,None,0,Aahana,001,2023-11-28_19h39.11.555,Final_Project,2023.1.3,59.803140014579405,
0,30,0,60,0,230.79060850001406,231.7906001000083,231.7906001000083,232.29096589999972,232.29096589999972,232.59065880003618,232.59065880003618,down,1,0.3574172999942675,None,1,Aahana,001,2023-11-28_19h39.11.555,Final_Project,2023.1.3,59.803140014579405,
45,30,1,61,1,232.973983999982,233.97417120001046,233.97417120001046,234.47428140003467,234.47428140003467,234.77416030003224,234.77416030003224,down,1,0.30915740004274994,None,4,Aahana,001,2023-11-28_19h39.11.555,Final_Project,2023.1.3,59.803140014579405,
0,31,0,62,0,235.107619300019,236.10712549998425,236.10712549998425,236.6077607999905,236.6077607999905,236.9074528000201,236.9074528000201,up,1,0.7495135000208393,None,0,Aahana,001,2023-11-28_19h39.11.555,Final_Project,2023.1.3,59.803140014579405,
45,31,1,63,1,237.673813899979,238.674080900033,238.674080900033,239.17428199999267,239.17428199999267,239.47399870003574,239.47399870003574,down,1,0.2652206000057049,None,4,Aahana,001,2023-11-28_19h39.11.555,Final_Project,2023.1.3,59.803140014579405,
45,32,0,64,1,239.75734180002473,240.7571057000314,240.7571057000314,241.25772240001243,241.25772240001243,241.557544899988,241.557544899988,down,0,0.1667672999901697,None,0,Aahana,001,2023-11-28_19h39.11.555,Final_Project,2023.1.3,59.803140014579405,
0,32,1,65,0,241.74048129998846,242.74044050002703,242.74044050002703,243.24100139999064,243.24100139999064,243.54021300002933,243.54021300002933,down,1,0.4385630000033416,None,1,Aahana,001,2023-11-28_19h39.11.555,Final_Project,2023.1.3,59.803140014579405,
45,33,0,66,1,244.00739059998887,245.0075899999938,245.0075899999938,245.50761179998517,245.50761179998517,245.8074422000209,245.8074422000209,up,1,0.7611478999606334,None,0,Aahana,001,2023-11-28_19h39.11.555,Final_Project,2023.1.3,59.803140014579405,
0,33,1,67,0,246.5904445000342,247.59069690003525,247.59069690003525,248.0907132999855,248.0907132999855,248.39076590002514,248.39076590002514,up,1,0.9034301999490708,None,0,Aahana,001,2023-11-28_19h39.11.555,Final_Project,2023.1.3,59.803140014579405,
0,34,0,68,0,249.32424530002754,250.3236234000069,250.3236234000069,250.8242474999861,250.8242474999861,251.12413830001606,251.12413830001606,down,0,1.1354779999819584,None,0,Aahana,001,2023-11-28_19h39.11.555,Final_Project,2023.1.3,59.803140014579405,
45,34,1,69,1,252.29077429999597,253.2907217000029,253.2907217000029,253.79069699998945,253.79069699998945,254.090794800024,254.090794800024,down,1,0.5038444000529125,None,-4,Aahana,001,2023-11-28_19h39.11.555,Final_Project,2023.1.3,59.803140014579405,
45,35,0,70,1,254.6243082000292,255.62411600002088,255.62411600002088,256.1241252000327,256.1241252000327,256.42430349998176,256.42430349998176,up,1,0.8005706000258215,None,0,Aahana,001,2023-11-28_19h39.11.555,Final_Project,2023.1.3,59.803140014579405,
0,35,1,71,0,257.25740589998895,258.2575138999964,258.2575138999964,258.7578078000224,258.7578078000224,259.05752560001565,259.05752560001565,down,1,0.6512395999743603,None,-4,Aahana,001,2023-11-28_19h39.11.555,Final_Project,2023.1.3,59.803140014579405,
0,36,0,72,0,259.74067800003104,260.740742199996,260.740742199996,261.240683800017,261.240683800017,261.5408127999981,261.5408127999981,up,1,0.7236397999804467,None,0,Aahana,001,2023-11-28_19h39.11.555,Final_Project,2023.1.3,59.803140014579405,
45,36,1,73,1,262.2908647999866,263.2906011000159,263.2906011000159,263.79057459998876,263.79057459998876,264.09073470003204,264.09073470003204,down,1,0.2746266000322066,None,2,Aahana,001,2023-11-28_19h39.11.555,Final_Project,2023.1.3,59.803140014579405,
0,37,0,74,0,264.39056490000803,265.3908030000166,265.3908030000166,265.8909422000288,265.8909422000288,266.19079710001824,266.19079710001824,up,1,0.6257566999993287,None,0,Aahana,001,2023-11-28_19h39.11.555,Final_Project,2023.1.3,59.803140014579405,
45,37,1,75,1,266.8407116000308,267.84066149999853,267.84066149999853,268.3407009000075,268.3407009000075,268.64068880002014,268.64068880002014,down,1,0.1685871999943629,None,2,Aahana,001,2023-11-28_19h39.11.555,Final_Project,2023.1.3,59.803140014579405,
0,38,0,76,0,268.8443464000011,269.8404703999986,269.85767810000107,270.34080940001877,270.34080940001877,270.640748100006,270.640748100006,up,1,0.5076403999701142,None,0,Aahana,001,2023-11-28_19h39.11.555,Final_Project,2023.1.3,59.803140014579405,
45,38,1,77,1,271.17443600000115,272.1741851000115,272.1741851000115,272.6742733999854,272.6742733999854,272.973998600035,272.973998600035,down,1,4.477142699994147,None,4,Aahana,001,2023-11-28_19h39.11.555,Final_Project,2023.1.3,59.803140014579405,
0,39,0,78,0,277.4744121999829,278.47435490001226,278.47435490001226,278.9740452999831,278.9740452999831,279.273933199991,279.273933199991,down,1,0.728287799982354,None,2,Aahana,001,2023-11-28_19h39.11.555,Final_Project,2023.1.3,59.803140014579405,
45,39,1,79,1,280.02430410002125,281.0248378000106,281.0248378000106,281.524393700005,281.524393700005,281.8241747000138,281.8241747000138,up,1,0.5753438999527134,None,0,Aahana,001,2023-11-28_19h39.11.555,Final_Project,2023.1.3,59.803140014579405,
0,40,0,80,0,282.4239975999808,283.4242030000314,283.4242030000314,283.92436689999886,283.92436689999886,284.22411120001925,284.22411120001925,up,1,0.5070999999879859,None,0,Aahana,001,2023-11-28_19h39.11.555,Final_Project,2023.1.3,59.803140014579405,
45,40,1,81,1,284.7575891999877,285.7574999000062,285.7574999000062,286.2576274999883,286.2576274999883,286.55700269999215,286.55700269999215,down,1,0.3457512999884784,None,-2,Aahana,001,2023-11-28_19h39.11.555,Final_Project,2023.1.3,59.803140014579405,
45,41,0,82,1,286.9236817000201,287.92429940000875,287.92429940000875,288.424245400005,288.424245400005,288.72412540001096,288.72412540001096,up,1,4.321398100000806,None,0,Aahana,001,2023-11-28_19h39.11.555,Final_Project,2023.1.3,59.803140014579405,
0,41,1,83,0,293.07429190003313,294.07417959999293,294.07417959999293,294.5744904000312,294.5744904000312,294.87425210000947,294.87425210000947,down,0,0.6299182000220753,None,0,Aahana,001,2023-11-28_19h39.11.555,Final_Project,2023.1.3,59.803140014579405,
45,42,0,84,1,295.52424360002624,296.5242156999884,296.5242156999884,297.02458690002095,297.02458690002095,297.3243593000225,297.3243593000225,up,1,0.7343351000454277,None,0,Aahana,001,2023-11-28_19h39.11.555,Final_Project,2023.1.3,59.803140014579405,
0,42,1,85,0,298.09076370002003,299.0909335000324,299.0909335000324,299.5908811999834,299.5908811999834,299.8904677000246,299.8904677000246,down,1,0.5053075000178069,None,-2,Aahana,001,2023-11-28_19h39.11.555,Final_Project,2023.1.3,59.803140014579405,
45,43,0,86,1,300.42433639999945,301.4242025000276,301.4242025000276,301.92425490001915,301.92425490001915,302.2241135999793,302.2241135999793,up,1,0.6031568999751471,None,0,Aahana,001,2023-11-28_19h39.11.555,Final_Project,2023.1.3,59.803140014579405,
0,43,1,87,0,302.8576161999954,303.8574949000031,303.8574949000031,304.35784920002334,304.35784920002334,304.65760770003544,304.65760770003544,up,1,0.7448688999866135,None,0,Aahana,001,2023-11-28_19h39.11.555,Final_Project,2023.1.3,59.803140014579405,
45,44,0,88,1,305.4244592000032,306.424141400028,306.424141400028,306.92449140001554,306.92449140001554,307.22423150000395,307.22423150000395,down,1,0.26809220004361123,None,-3,Aahana,001,2023-11-28_19h39.11.555,Final_Project,2023.1.3,59.803140014579405,
0,44,1,89,0,307.5243865000084,308.5241834000335,308.5241834000335,309.0243906999822,309.0243906999822,309.3239940000349,309.3239940000349,down,1,0.36019739997573197,None,3,Aahana,001,2023-11-28_19h39.11.555,Final_Project,2023.1.3,59.803140014579405,
45,45,0,90,1,309.7075261999853,310.707619599998,310.707619599998,311.20775940001477,311.20775940001477,311.50746619998245,311.50746619998245,up,0,1.011996100016404,None,1,Aahana,001,2023-11-28_19h39.11.555,Final_Project,2023.1.3,59.803140014579405,
0,45,1,91,0,312.5408114999882,313.5407506999909,313.5407506999909,314.040826499986,314.040826499986,314.34092039999086,314.34092039999086,up,1,0.8222121000289917,None,0,Aahana,001,2023-11-28_19h39.11.555,Final_Project,2023.1.3,59.803140014579405,
0,46,0,92,0,315.1909991999855,316.19076189998304,316.19076189998304,316.69116210000357,316.69116210000357,316.9907866999856,316.9907866999856,down,1,1.4192930000135675,None,1,Aahana,001,2023-11-28_19h39.11.555,Final_Project,2023.1.3,59.803140014579405,
45,46,1,93,1,318.44085840001935,319.4409383999882,319.4409383999882,319.9409549999982,319.9409549999982,320.24095090001356,320.24095090001356,down,1,0.5246616000076756,None,4,Aahana,001,2023-11-28_19h39.11.555,Final_Project,2023.1.3,59.803140014579405,
45,47,0,94,1,320.7908759000129,321.7909303000197,321.7909303000197,322.2910877999966,322.2910877999966,322.59046199999284,322.59046199999284,up,1,0.6583866999717429,None,0,Aahana,001,2023-11-28_19h39.11.555,Final_Project,2023.1.3,59.803140014579405,
0,47,1,95,0,323.2743862000061,324.2739827000187,324.2739827000187,324.7741924999864,324.7741924999864,325.07383730000583,325.07383730000583,down,1,0.4138794000027701,None,2,Aahana,001,2023-11-28_19h39.11.555,Final_Project,2023.1.3,59.803140014579405,
45,48,0,96,1,325.5073513999814,326.5075958999805,326.5075958999805,327.00778650003485,327.00778650003485,327.3073605999816,327.3073605999816,up,1,0.8731788999866694,None,0,Aahana,001,2023-11-28_19h39.11.555,Final_Project,2023.1.3,59.803140014579405,
0,48,1,97,0,328.207707500027,329.2077453000238,329.2077453000238,329.70789040002273,329.70789040002273,330.0076322000241,330.0076322000241,down,1,0.2682276999694295,None,-5,Aahana,001,2023-11-28_19h39.11.555,Final_Project,2023.1.3,59.803140014579405,
0,49,0,98,0,330.3076251000166,331.3074564000126,331.3074564000126,331.8077345000347,331.8077345000347,332.1076209000312,332.1076209000312,up,1,1.2836174000403844,None,0,Aahana,001,2023-11-28_19h39.11.555,Final_Project,2023.1.3,59.803140014579405,
45,49,1,99,1,333.40742940001655,334.40760219999356,334.40760219999356,334.9078374999808,334.9078374999808,335.2076895000064,335.2076895000064,down,0,0.6011210999567993,None,0,Aahana,001,2023-11-28_19h39.11.555,Final_Project,2023.1.3,59.803140014579405,
0,50,0,100,0,335.8408934000181,336.84075820003636,336.84075820003636,337.341069600021,337.341069600021,337.64078790001804,337.64078790001804,down,1,0.6105925999581814,None,-4,Aahana,001,2023-11-28_19h39.11.555,Final_Project,2023.1.3,59.803140014579405,
45,50,1,101,1,338.27462179999566,339.27429349999875,339.27429349999875,339.77448289998574,339.77448289998574,340.07451870001387,340.07451870001387,up,1,0.593236299988348,None,0,Aahana,001,2023-11-28_19h39.11.555,Final_Project,2023.1.3,59.803140014579405,
0,51,0,102,0,340.6908898000256,341.690800899989,341.690800899989,342.19090159999905,342.19090159999905,342.49081610003486,342.49081610003486,down,1,1.0237008000258356,None,3,Aahana,001,2023-11-28_19h39.11.555,Final_Project,2023.1.3,59.803140014579405,
45,51,1,103,1,343.540811999992,344.54076430003624,344.54076430003624,345.0409910000162,345.0409910000162,345.34049899998354,345.34049899998354,up,1,0.5928163999924436,None,0,Aahana,001,2023-11-28_19h39.11.555,Final_Project,2023.1.3,59.803140014579405,
45,52,0,104,1,345.9575789999799,346.95786319999024,346.95786319999024,347.4577223000233,347.4577223000233,347.7576657999889,347.7576657999889,down,0,1.4994287000154145,None,0,Aahana,001,2023-11-28_19h39.11.555,Final_Project,2023.1.3,59.803140014579405,
0,52,1,105,0,349.2742137000314,350.2742750000325,350.2742750000325,350.7744384999969,350.7744384999969,351.07397329999367,351.07397329999367,up,1,1.5146682999911718,None,0,Aahana,001,2023-11-28_19h39.11.555,Final_Project,2023.1.3,59.803140014579405,
45,53,0,106,1,352.6077001999947,353.60770480002975,353.60770480002975,354.10788590001175,354.10788590001175,354.40767520002555,354.40767520002555,down,1,0.580832899955567,None,3,Aahana,001,2023-11-28_19h39.11.555,Final_Project,2023.1.3,59.803140014579405,
0,53,1,107,0,355.0077020000317,356.0076963999891,356.0076963999891,356.5077626000275,356.5077626000275,356.8076628000126,356.8076628000126,down,1,0.9679157999926247,None,1,Aahana,001,2023-11-28_19h39.11.555,Final_Project,2023.1.3,59.803140014579405,
45,54,0,108,1,357.80770130001474,358.8076506999787,358.8076506999787,359.3083827000228,359.3083827000228,359.6077704000054,359.6077704000054,down,1,0.5179099999950267,None,3,Aahana,001,2023-11-28_19h39.11.555,Final_Project,2023.1.3,59.803140014579405,
0,54,1,109,0,360.15758669999195,361.1577466999879,361.1577466999879,361.65781519998563,361.65781519998563,361.9577098999871,361.9577098999871,down,1,1.0108440999756567,None,-4,Aahana,001,2023-11-28_19h39.11.555,Final_Project,2023.1.3,59.803140014579405,
45,55,0,110,1,362.99100710003404,363.9910263000056,363.9910263000056,364.49114440003177,364.49114440003177,364.7908812999958,364.7908812999958,down,1,0.43262450001202524,None,-4,Aahana,001,2023-11-28_19h39.11.555,Final_Project,2023.1.3,59.803140014579405,
0,55,1,111,0,365.241070899996,366.24090999999316,366.24090999999316,366.7410507000168,366.7410507000168,367.0405564000248,367.0405564000248,up,0,0.9305288000032306,None,1,Aahana,001,2023-11-28_19h39.11.555,Final_Project,2023.1.3,59.803140014579405,
0,56,0,112,0,367.99076260003494,368.97405640000943,368.99064199998975,369.47437950002495,369.49097240000265,369.79065039998386,369.79065039998386,up,1,0.7648856000159867,None,0,Aahana,001,2023-11-28_19h39.11.555,Final_Project,2023.1.3,59.803140014579405,
45,56,1,113,1,370.5743901000242,371.5743941999972,371.5743941999972,372.0744741000235,372.0744741000235,372.3743539000279,372.3743539000279,down,1,0.29285880003590137,None,-5,Aahana,001,2023-11-28_19h39.11.555,Final_Project,2023.1.3,59.803140014579405,
45,57,0,114,1,372.69089179998264,373.69087880000006,373.69087880000006,374.19097719999263,374.19097719999263,374.4907306000241,374.4907306000241,up,1,0.6179025999736041,None,0,Aahana,001,2023-11-28_19h39.11.555,Final_Project,2023.1.3,59.803140014579405,
0,57,1,115,0,375.14108380000107,376.14107770001283,376.14107770001283,376.6407202000264,376.6407202000264,376.9408818000229,376.9408818000229,down,1,0.2315577999688685,None,-5,Aahana,001,2023-11-28_19h39.11.555,Final_Project,2023.1.3,59.803140014579405,
0,58,0,116,0,377.19098329998087,378.1909212000319,378.1909212000319,378.6910102000111,378.6910102000111,378.9907964000013,378.9907964000013,up,1,0.33806510001886636,None,0,Aahana,001,2023-11-28_19h39.11.555,Final_Project,2023.1.3,59.803140014579405,
45,58,1,117,1,379.3578710000147,380.357591899985,380.357591899985,380.8580759000033,380.8580759000033,381.15772570000263,381.15772570000263,up,1,0.6111547999898903,None,0,Aahana,001,2023-11-28_19h39.11.555,Final_Project,2023.1.3,59.803140014579405,
45,59,0,118,1,381.7907173000276,382.7909425999969,382.7909425999969,383.291130800033,383.291130800033,383.5909004000132,383.5909004000132,down,1,0.443422999989707,None,-3,Aahana,001,2023-11-28_19h39.11.555,Final_Project,2023.1.3,59.803140014579405,
0,59,1,119,0,384.0576114000287,385.04072260000976,385.05764850002015,385.54099890001817,385.55795089999447,385.85771310003474,385.85771310003474,up,1,0.534465300035663,None,0,Aahana,001,2023-11-28_19h39.11.555,Final_Project,2023.1.3,59.803140014579405,
0,60,0,120,0,386.42453170003137,387.424445200013,387.424445200013,387.92471490002936,387.92471490002936,388.2245248000254,388.2245248000254,down,1,0.34843569999793544,None,1,Aahana,001,2023-11-28_19h39.11.555,Final_Project,2023.1.3,59.803140014579405,
45,60,1,121,1,388.5910212000017,389.5909234000137,389.5909234000137,390.09099910000805,390.09099910000805,390.39050119998865,390.39050119998865,up,1,0.6279336999868974,None,0,Aahana,001,2023-11-28_19h39.11.555,Final_Project,2023.1.3,59.803140014579405,
45,61,0,122,1,391.0410028999904,392.04093090002425,392.04093090002425,392.5410619000322,392.5410619000322,392.8407252000179,392.8407252000179,down,1,0.717944800038822,None,-3,Aahana,001,2023-11-28_19h39.11.555,Final_Project,2023.1.3,59.803140014579405,
0,61,1,123,0,393.59087339998223,394.59094860003097,394.59094860003097,395.0910415999824,395.0910415999824,395.3909687999985,395.3909687999985,down,1,0.5541772000142373,None,-5,Aahana,001,2023-11-28_19h39.11.555,Final_Project,2023.1.3,59.803140014579405,
45,62,0,124,1,395.9745840000105,396.97436190000735,396.97436190000735,397.4745721000363,397.4745721000363,397.77438250003615,397.77438250003615,down,1,0.9449982999940403,None,-4,Aahana,001,2023-11-28_19h39.11.555,Final_Project,2023.1.3,59.803140014579405,
0,62,1,125,0,398.740913000016,399.740967300022,399.740967300022,400.24067329999525,400.24067329999525,400.5410334999906,400.5410334999906,down,1,1.2116059000254609,None,2,Aahana,001,2023-11-28_19h39.11.555,Final_Project,2023.1.3,59.803140014579405,
0,63,0,126,0,401.77452869998524,402.7743707000045,402.7743707000045,403.27458999998635,403.27458999998635,403.5742615000345,403.5742615000345,down,1,0.7086951999808662,None,3,Aahana,001,2023-11-28_19h39.11.555,Final_Project,2023.1.3,59.803140014579405,
45,63,1,127,1,404.30796569999075,405.30777549999766,405.30777549999766,405.80780629999936,405.80780629999936,406.1073745000176,406.1073745000176,up,1,0.6521629999624565,None,0,Aahana,001,2023-11-28_19h39.11.555,Final_Project,2023.1.3,59.803140014579405,
45,64,0,128,1,406.7912007999839,407.79109030001564,407.79109030001564,408.29112080001505,408.29112080001505,408.5914745000191,408.5914745000191,down,1,0.760093099961523,None,-3,Aahana,001,2023-11-28_19h39.11.555,Final_Project,2023.1.3,59.803140014579405,
0,64,1,129,0,409.374504300009,410.3745155999786,410.3745155999786,410.8745939999935,410.8745939999935,411.1742643000325,411.1742643000325,down,1,0.4906814999994822,None,-5,Aahana,001,2023-11-28_19h39.11.555,Final_Project,2023.1.3,59.803140014579405,
0,65,0,130,0,411.69115570001304,412.69099810003536,412.69099810003536,413.19116340001347,413.19116340001347,413.4909774999833,413.4909774999833,up,1,3.8671808000071906,None,0,Aahana,001,2023-11-28_19h39.11.555,Final_Project,2023.1.3,59.803140014579405,
45,65,1,131,1,417.37478620000184,418.374379099987,418.374379099987,418.8744531000266,418.8744531000266,419.1746387000312,419.1746387000312,down,1,0.5177290000137873,None,4,Aahana,001,2023-11-28_19h39.11.555,Final_Project,2023.1.3,59.803140014579405,
0,66,0,132,0,419.7243990999996,420.7245297000045,420.7245297000045,421.2242472000071,421.2242472000071,421.52405619999627,421.52405619999627,up,1,4.418950000021141,None,0,Aahana,001,2023-11-28_19h39.11.555,Final_Project,2023.1.3,59.803140014579405,
45,66,1,133,1,425.97455520002404,426.9743708000169,426.9743708000169,427.47479419998126,427.47479419998126,427.7743335000123,427.7743335000123,down,1,1.4300074999919161,None,1,Aahana,001,2023-11-28_19h39.11.555,Final_Project,2023.1.3,59.803140014579405,
45,67,0,134,1,429.2241849999991,430.22443770000245,430.22443770000245,430.72457379999105,430.72457379999105,431.02444980002474,431.02444980002474,up,1,0.34108590002870187,None,0,Aahana,001,2023-11-28_19h39.11.555,Final_Project,2023.1.3,59.803140014579405,
0,67,1,135,0,431.3911820999929,432.3910604999983,432.3910604999983,432.8911426999839,432.8911426999839,433.19100980000803,433.19100980000803,down,1,0.5115839999634773,None,-5,Aahana,001,2023-11-28_19h39.11.555,Final_Project,2023.1.3,59.803140014579405,
45,68,0,136,1,433.72459320002235,434.7245224000071,434.7245224000071,435.22462120000273,435.22462120000273,435.52441349998116,435.52441349998116,down,1,0.3916913999710232,None,-2,Aahana,001,2023-11-28_19h39.11.555,Final_Project,2023.1.3,59.803140014579405,
0,68,1,137,0,435.94100819999585,436.9406079000328,436.9406079000328,437.4411674999865,437.4411674999865,437.7409440000192,437.7409440000192,up,1,0.5962173999869265,None,0,Aahana,001,2023-11-28_19h39.11.555,Final_Project,2023.1.3,59.803140014579405,
45,69,0,138,1,438.358006800001,439.3579174000188,439.3579174000188,439.85807610000484,439.85807610000484,440.15773289999925,440.15773289999925,down,1,0.4868265999830328,None,-3,Aahana,001,2023-11-28_19h39.11.555,Final_Project,2023.1.3,59.803140014579405,
0,69,1,139,0,440.67458659998374,441.67457259999355,441.67457259999355,442.17480620002607,442.17480620002607,442.47450760001084,442.47450760001084,down,1,0.3996896999888122,None,-4,Aahana,001,2023-11-28_19h39.11.555,Final_Project,2023.1.3,59.803140014579405,
0,70,0,140,0,442.8910583999823,443.890841800021,443.890841800021,444.3913078000187,444.3913078000187,444.69104110001354,444.69104110001354,down,1,0.33200979995308444,None,-4,Aahana,001,2023-11-28_19h39.11.555,Final_Project,2023.1.3,59.803140014579405,
45,70,1,141,1,445.0409522000118,446.0411022999906,446.0411022999906,446.5414971000282,446.5414971000282,446.840992500016,446.840992500016,down,1,0.8115337999770418,None,4,Aahana,001,2023-11-28_19h39.11.555,Final_Project,2023.1.3,59.803140014579405,
0,71,0,142,0,447.67455039999913,448.67453820002265,448.67453820002265,449.1747386000352,449.1747386000352,449.4746314000222,449.4746314000222,up,1,0.41005399997811764,None,0,Aahana,001,2023-11-28_19h39.11.555,Final_Project,2023.1.3,59.803140014579405,
45,71,1,143,1,449.9077463999856,450.90783169999486,450.90783169999486,451.4079030000139,451.4079030000139,451.7078674000222,451.7078674000222,up,1,0.8632824999513105,None,0,Aahana,001,2023-11-28_19h39.11.555,Final_Project,2023.1.3,59.803140014579405,
0,72,0,144,0,452.59099779999815,453.59122519998346,453.59122519998346,454.09110329998657,454.09110329998657,454.3911429999862,454.3911429999862,up,1,0.7346382000250742,None,0,Aahana,001,2023-11-28_19h39.11.555,Final_Project,2023.1.3,59.803140014579405,
45,72,1,145,1,455.15772800002014,456.1578002999886,456.1578002999886,456.65808680001646,456.65808680001646,456.9578009999823,456.9578009999823,up,1,0.41889590001665056,None,0,Aahana,001,2023-11-28_19h39.11.555,Final_Project,2023.1.3,59.803140014579405,
45,73,0,146,1,457.40800769999623,458.408170300012,458.408170300012,458.90789770003175,458.90789770003175,459.2078806000063,459.2078806000063,down,1,0.6013495999504812,None,3,Aahana,001,2023-11-28_19h39.11.555,Final_Project,2023.1.3,59.803140014579405,
0,73,1,147,0,459.8411170000327,460.8408741999883,460.8408741999883,461.3411669000052,461.3411669000052,461.6411570000346,461.6411570000346,down,1,0.17991209996398538,None,-5,Aahana,001,2023-11-28_19h39.11.555,Final_Project,2023.1.3,59.803140014579405,
0,74,0,148,0,461.84106010000687,462.8410961999907,462.8410961999907,463.3409358999925,463.3409358999925,463.64106890000403,463.64106890000403,down,1,0.25128219998441637,None,3,Aahana,001,2023-11-28_19h39.11.555,Final_Project,2023.1.3,59.803140014579405,
45,74,1,149,1,463.9246770000318,464.92474049999146,464.92474049999146,465.42455110000446,465.42455110000446,465.7244520999957,465.7244520999957,down,1,0.19887209997978061,None,2,Aahana,001,2023-11-28_19h39.11.555,Final_Project,2023.1.3,59.803140014579405,
45,75,0,150,1,465.9410538999946,466.94102810003096,466.94102810003096,467.4411288999836,467.4411288999836,467.74120779999066,467.74120779999066,up,0,0.6244557999889366,None,-2,Aahana,001,2023-11-28_19h39.11.555,Final_Project,2023.1.3,59.803140014579405,
0,75,1,151,0,468.39084479998564,469.3912301000091,469.3912301000091,469.89125950000016,469.89125950000016,470.1907782999915,470.1907782999915,up,1,0.4266168999602087,None,0,Aahana,001,2023-11-28_19h39.11.555,Final_Project,2023.1.3,59.803140014579405,
0,76,0,152,0,470.64128109999,471.6410885999794,471.6410885999794,472.14133900002344,472.14133900002344,472.44110080000246,472.44110080000246,down,1,0.45137740002246574,None,-5,Aahana,001,2023-11-28_19h39.11.555,Final_Project,2023.1.3,59.803140014579405,
45,76,1,153,1,472.9245861999807,473.9243892999948,473.9243892999948,474.42483700002776,474.42483700002776,474.72464550001314,474.72464550001314,up,1,0.8528855000040494,None,0,Aahana,001,2023-11-28_19h39.11.555,Final_Project,2023.1.3,59.803140014579405,
0,77,0,154,0,475.6079144999967,476.6079031000263,476.6079031000263,477.1078983999905,477.1078983999905,477.40803480002796,477.40803480002796,up,1,0.494185000017751,None,0,Aahana,001,2023-11-28_19h39.11.555,Final_Project,2023.1.3,59.803140014579405,
45,77,1,155,1,477.92462250002427,478.92482299997937,478.92482299997937,479.4245421999949,479.4245421999949,479.724660900014,479.724660900014,up,1,0.3643686999566853,None,0,Aahana,001,2023-11-28_19h39.11.555,Final_Project,2023.1.3,59.803140014579405,
0,78,0,156,0,480.1076913999859,481.10795010003494,481.10795010003494,481.60813250002684,481.60813250002684,481.9079803000204,481.9079803000204,down,1,0.4809421999962069,None,-3,Aahana,001,2023-11-28_19h39.11.555,Final_Project,2023.1.3,59.803140014579405,
45,78,1,157,1,482.4077824000269,483.4078334000078,483.4078334000078,483.90786219999427,483.90786219999427,484.207848799997,484.207848799997,up,1,0.8681517000077292,None,0,Aahana,001,2023-11-28_19h39.11.555,Final_Project,2023.1.3,59.803140014579405,
45,79,0,158,1,485.1180483000353,486.1076851999969,486.1242676000111,486.6079543000087,486.6079543000087,486.9081038000295,486.9081038000295,up,1,0.47922390000894666,None,0,Aahana,001,2023-11-28_19h39.11.555,Final_Project,2023.1.3,59.803140014579405,
0,79,1,159,0,487.4078150999849,488.40790049999487,488.40790049999487,488.90809670003364,488.90809670003364,489.20764610002516,489.20764610002516,down,1,0.6015078999917023,None,-4,Aahana,001,2023-11-28_19h39.11.555,Final_Project,2023.1.3,59.803140014579405,
0,80,0,160,0,489.8414550999878,490.84098430001177,490.84098430001177,491.3412541000289,491.3412541000289,491.64114910003264,491.64114910003264,up,1,0.69499430002179,None,0,Aahana,001,2023-11-28_19h39.11.555,Final_Project,2023.1.3,59.803140014579405,
45,80,1,161,1,492.3578512999811,493.3579577000346,493.3579577000346,493.8578437999822,493.8578437999822,494.1578652000171,494.1578652000171,down,1,0.4320558000472374,None,-3,Aahana,001,2023-11-28_19h39.11.555,Final_Project,2023.1.3,59.803140014579405,
0,81,0,162,0,494.60785299999407,495.6081975999987,495.6081975999987,496.10784990002867,496.10784990002867,496.4079148999881,496.4079148999881,up,1,0.6722273000050336,None,0,Aahana,001,2023-11-28_19h39.11.555,Final_Project,2023.1.3,59.803140014579405,
45,81,1,163,1,497.10786829999415,498.10806370002683,498.10806370002683,498.6079473000136,498.6079473000136,498.90798230003566,498.90798230003566,up,1,0.6444544999976642,None,0,Aahana,001,2023-11-28_19h39.11.555,Final_Project,2023.1.3,59.803140014579405,
0,82,0,164,0,499.5748220999958,500.57468459999654,500.57468459999654,501.0748177000205,501.0748177000205,501.3746116000111,501.3746116000111,up,1,0.6023108999943361,None,0,Aahana,001,2023-11-28_19h39.11.555,Final_Project,2023.1.3,59.803140014579405,
45,82,1,165,1,502.0081868999987,503.007826999994,503.007826999994,503.5081009999849,503.5081009999849,503.80821510002716,503.80821510002716,up,1,1.0310408000368625,None,0,Aahana,001,2023-11-28_19h39.11.555,Final_Project,2023.1.3,59.803140014579405,
0,83,0,166,0,504.85787629999686,505.85800409998046,505.85800409998046,506.3581481000292,506.3581481000292,506.6579847999965,506.6579847999965,down,1,0.24783540004864335,None,3,Aahana,001,2023-11-28_19h39.11.555,Final_Project,2023.1.3,59.803140014579405,
45,83,1,167,1,506.92469680000795,507.92464739998104,507.92464739998104,508.4248997999821,508.4248997999821,508.72453860001406,508.72453860001406,up,1,0.6118015000247397,None,0,Aahana,001,2023-11-28_19h39.11.555,Final_Project,2023.1.3,59.803140014579405,
45,84,0,168,1,509.3580633000238,510.3578113000258,510.3578113000258,510.8579779000138,510.8579779000138,511.15809049998643,511.15809049998643,down,1,0.8393717000144534,None,1,Aahana,001,2023-11-28_19h39.11.555,Final_Project,2023.1.3,59.803140014579405,
0,84,1,169,0,512.024675099994,513.0244695000001,513.0244695000001,513.5245405000169,513.5245405000169,513.8243149000336,513.8243149000336,down,1,0.2452789000235498,None,4,Aahana,001,2023-11-28_19h39.11.555,Final_Project,2023.1.3,59.803140014579405,
45,85,0,170,1,514.0911133000045,515.0908634000225,515.0908634000225,515.5913371000206,515.5913371000206,515.8911633000243,515.8911633000243,up,1,0.652381099993363,None,0,Aahana,001,2023-11-28_19h39.11.555,Final_Project,2023.1.3,59.803140014579405,
0,85,1,171,0,516.5745957000181,517.5746768999961,517.5746768999961,518.0748353999807,518.0748353999807,518.3747256000061,518.3747256000061,up,1,0.6442933999933302,None,0,Aahana,001,2023-11-28_19h39.11.555,Final_Project,2023.1.3,59.803140014579405,
0,86,0,172,0,519.041243500018,520.0411678000237,520.0411678000237,520.5411658000085,520.5411658000085,520.8411521000089,520.8411521000089,up,1,0.6127742999815382,None,0,Aahana,001,2023-11-28_19h39.11.555,Final_Project,2023.1.3,59.803140014579405,
45,86,1,173,1,521.4745935000246,522.4746171000297,522.4746171000297,522.9748893000069,522.9748893000069,523.274668099999,523.274668099999,down,1,0.5989506000187248,None,2,Aahana,001,2023-11-28_19h39.11.555,Final_Project,2023.1.3,59.803140014579405,
0,87,0,174,0,523.8914459000225,524.8911926000146,524.8911926000146,525.3913025999791,525.3913025999791,525.6912064999924,525.6912064999924,down,1,0.7235654999967664,None,-3,Aahana,001,2023-11-28_19h39.11.555,Final_Project,2023.1.3,59.803140014579405,
45,87,1,175,1,526.441267599992,527.441198799992,527.441198799992,527.941245199996,527.941245199996,528.2412926999968,528.2412926999968,down,1,1.2908442000043578,None,2,Aahana,001,2023-11-28_19h39.11.555,Final_Project,2023.1.3,59.803140014579405,
45,88,0,176,1,529.5581504000002,530.5580775000271,530.5580775000271,531.0578343999805,531.0578343999805,531.3580420000362,531.3580420000362,down,1,0.5947694000205956,None,-5,Aahana,001,2023-11-28_19h39.11.555,Final_Project,2023.1.3,59.803140014579405,
0,88,1,177,0,531.9746594000026,532.9747498999932,532.9747498999932,533.4746093000285,533.4746093000285,533.774562400009,533.774562400009,down,1,0.2581576000084169,None,-4,Aahana,001,2023-11-28_19h39.11.555,Final_Project,2023.1.3,59.803140014579405,
0,89,0,178,0,534.0582146000233,535.0580222000135,535.0580222000135,535.5581299000187,535.5581299000187,535.8579992000014,535.8579992000014,down,1,0.34977959998650476,None,-3,Aahana,001,2023-11-28_19h39.11.555,Final_Project,2023.1.3,59.803140014579405,
45,89,1,179,1,536.2246132,537.2243371999939,537.2243371999939,537.7248718999908,537.7248718999908,538.024963999982,538.024963999982,up,1,0.6356396999908611,None,0,Aahana,001,2023-11-28_19h39.11.555,Final_Project,2023.1.3,59.803140014579405,
0,90,0,180,0,538.6910500000231,539.6912487000227,539.6912487000227,540.1913036000333,540.1913036000333,540.4910690999823,540.4910690999823,down,1,0.2858579999883659,None,3,Aahana,001,2023-11-28_19h39.11.555,Final_Project,2023.1.3,59.803140014579405,
45,90,1,181,1,540.808117299981,541.8078281999915,541.8078281999915,542.3082106999937,542.3082106999937,542.6080070000025,542.6080070000025,down,0,0.42043030000058934,None,0,Aahana,001,2023-11-28_19h39.11.555,Final_Project,2023.1.3,59.803140014579405,
0,91,0,182,0,543.0579552000272,544.0581151000224,544.0581151000224,544.5581062000128,544.5581062000128,544.8578824999859,544.8578824999859,down,1,1.5178901000181213,None,3,Aahana,001,2023-11-28_19h39.11.555,Final_Project,2023.1.3,59.803140014579405,
45,91,1,183,1,546.407832500001,547.4080019000103,547.4080019000103,547.9082698000129,547.9082698000129,548.2079954000073,548.2079954000073,up,1,0.6665593999787234,None,0,Aahana,001,2023-11-28_19h39.11.555,Final_Project,2023.1.3,59.803140014579405,
45,92,0,184,1,548.8912087000208,549.8912129999953,549.8912129999953,550.3916349000065,550.3916349000065,550.6913967999863,550.6913967999863,up,1,0.6125772000523284,None,0,Aahana,001,2023-11-28_19h39.11.555,Final_Project,2023.1.3,59.803140014579405,
0,92,1,185,0,551.3248088000109,552.3246924999985,552.3246924999985,552.8247835999937,552.8247835999937,553.124537500029,553.124537500029,up,1,0.7776720999972895,None,0,Aahana,001,2023-11-28_19h39.11.555,Final_Project,2023.1.3,59.803140014579405,
45,93,0,186,1,553.9249116000137,554.9248217000277,554.9248217000277,555.4247815000126,555.4247815000126,555.7246429999941,555.7246429999941,down,0,0.7392146000056528,None,0,Aahana,001,2023-11-28_19h39.11.555,Final_Project,2023.1.3,59.803140014579405,
0,93,1,187,0,556.4911807000171,557.4911948000081,557.4911948000081,557.9912958000205,557.9912958000205,558.2912073000334,558.2912073000334,up,1,0.6959403000073507,None,0,Aahana,001,2023-11-28_19h39.11.555,Final_Project,2023.1.3,59.803140014579405,
45,94,0,188,1,559.0080396999838,560.0081174999941,560.0081174999941,560.5082267000107,560.5082267000107,560.8081148000201,560.8081148000201,down,0,0.7763124000048265,None,0,Aahana,001,2023-11-28_19h39.11.555,Final_Project,2023.1.3,59.803140014579405,
0,94,1,189,0,561.6080557000241,562.6080048999866,562.6080048999866,563.1080249000224,563.1080249000224,563.4080644000205,563.4080644000205,down,1,0.3397230000118725,None,-4,Aahana,001,2023-11-28_19h39.11.555,Final_Project,2023.1.3,59.803140014579405,
45,95,0,190,1,563.7746485000243,564.7745078000007,564.7745078000007,565.2748008000199,565.2748008000199,565.5746631000075,565.5746631000075,up,1,1.0318973999819718,None,0,Aahana,001,2023-11-28_19h39.11.555,Final_Project,2023.1.3,59.803140014579405,
0,95,1,191,0,566.624704100017,567.6248248000047,567.6248248000047,568.124768299982,568.124768299982,568.4247465999797,568.4247465999797,down,1,0.6127960999729112,None,-5,Aahana,001,2023-11-28_19h39.11.555,Final_Project,2023.1.3,59.803140014579405,
0,96,0,192,0,569.072791100014,570.0581925000297,570.0748000000021,570.5581329999841,570.5581329999841,570.8581293000025,570.8581293000025,down,1,0.431456700025592,None,-3,Aahana,001,2023-11-28_19h39.11.555,Final_Project,2023.1.3,59.803140014579405,
45,96,1,193,1,571.3081788999843,572.3079419999849,572.3079419999849,572.8080830000108,572.8080830000108,573.107777600002,573.107777600002,up,0,0.6185277000186034,None,2,Aahana,001,2023-11-28_19h39.11.555,Final_Project,2023.1.3,59.803140014579405,
0,97,0,194,0,573.7577435999992,574.7578760000179,574.7578760000179,575.258158600016,575.258158600016,575.5581254999852,575.5581254999852,up,1,1.1490672000218183,None,0,Aahana,001,2023-11-28_19h39.11.555,Final_Project,2023.1.3,59.803140014579405,
45,97,1,195,1,576.7246905000065,577.7247563999845,577.7247563999845,578.2248862999841,578.2248862999841,578.5254368000315,578.5254368000315,up,1,0.6460965000442229,None,0,Aahana,001,2023-11-28_19h39.11.555,Final_Project,2023.1.3,59.803140014579405,
0,98,0,196,0,579.1913067999994,580.1913022000226,580.1913022000226,580.6915301000117,580.6915301000117,580.9913139999844,580.9913139999844,down,1,12.365868999972008,None,-5,Aahana,001,2023-11-28_19h39.11.555,Final_Project,2023.1.3,59.803140014579405,
45,98,1,197,1,593.3748782000039,594.3749576000264,594.3749576000264,594.8749118000269,594.8749118000269,595.1750059000333,595.1750059000333,down,1,0.3315784999867901,None,-4,Aahana,001,2023-11-28_19h39.11.555,Final_Project,2023.1.3,59.803140014579405,
45,99,0,198,1,595.524741100031,596.5246854000143,596.5246854000143,597.0248996000155,597.0248996000155,597.3248088000109,597.3248088000109,up,0,0.6065114999655634,None,1,Aahana,001,2023-11-28_19h39.11.555,Final_Project,2023.1.3,59.803140014579405,
0,99,1,199,0,597.9581023000064,598.95819450001,598.95819450001,599.4583104000194,599.4583104000194,599.7581359000178,599.7581359000178,down,1,0.4449003000045195,None,4,Aahana,001,2023-11-28_19h39.11.555,Final_Project,2023.1.3,59.803140014579405,
