orient,trials.thisRepN,trials.thisTrialN,trials.thisN,trials.thisIndex,thisRow.t,notes,trial.started,polygon.started,polygon_2.started,polygon.stopped,polygon_2.stopped,grating.started,key_resp.started,grating.stopped,trial.stopped,key_resp.keys,key_resp.corr,key_resp.rt,key_resp.duration,tilt,participant,session,date,expName,psychopyVersion,frameRate,expStart,
45,0,0,0,1,0.011608000000705943,,0.008546199998818338,0.011608000000705943,1.0072703000041656,1.0238230999966618,1.5087077000061981,1.5087077000061981,1.8067266000143718,1.8230730000068434,2.057856700004777,up,1,0.24806209999951534,None,0,Hirva,001,2023-11-27_23h17.06.690,Final_Project,2023.2.3,59.98685088342161,2023-11-27 23h17.20.401846 +0530,
0,0,1,1,0,2.07280009999522,,2.064548800000921,2.07280009999522,3.0722489000181668,3.0722489000181668,3.571686100010993,3.571686100010993,3.871381200005999,3.871381200005999,4.005586200015387,up,1,0.11934780000592582,None,0,Hirva,001,2023-11-27_23h17.06.690,Final_Project,2023.2.3,59.98685088342161,2023-11-27 23h17.20.401846 +0530,
45,1,0,2,1,4.021271400008118,,4.006780099996831,4.021271400008118,5.020493699994404,5.020493699994404,5.520127700001467,5.520127700001467,5.819872499996563,5.819872499996563,6.054161800013389,up,1,0.22095119999721646,None,0,Hirva,001,2023-11-27_23h17.06.690,Final_Project,2023.2.3,59.98685088342161,2023-11-27 23h17.20.401846 +0530,
0,1,1,3,0,6.069705600006273,,6.0560028000036255,6.069705600006273,7.068819300009636,7.068819300009636,7.568474600004265,7.568474600004265,7.870446400018409,7.870446400018409,8.385368200019002,down,1,0.5069826999970246,None,2,Hirva,001,2023-11-27_23h17.06.690,Final_Project,2023.2.3,59.98685088342161,2023-11-27 23h17.20.401846 +0530,
0,2,0,4,0,8.40132450000965,,8.387612899998203,8.40132450000965,9.400320300017484,9.400320300017484,9.900001000001794,9.900001000001794,10.199818299995968,10.199818299995968,10.384766800008947,up,1,0.18124430000898428,None,0,Hirva,001,2023-11-27_23h17.06.690,Final_Project,2023.2.3,59.98685088342161,2023-11-27 23h17.20.401846 +0530,
45,2,1,5,1,10.399604300007923,,10.387998599995626,10.399604300007923,11.39891049999278,11.39891049999278,11.898519800015492,11.898519800015492,12.198158800019883,12.198158800019883,12.56558940000832,down,1,0.35770699998829514,None,3,Hirva,001,2023-11-27_23h17.06.690,Final_Project,2023.2.3,59.98685088342161,2023-11-27 23h17.20.401846 +0530,
0,3,0,6,0,12.581105599994771,,12.567818500014255,12.581105599994771,13.581699300004402,13.581699300004402,14.096626600017771,14.080379399994854,14.379589599993778,14.379589599993778,14.747198099998059,down,1,0.3603220999939367,None,1,Hirva,001,2023-11-27_23h17.06.690,Final_Project,2023.2.3,59.98685088342161,2023-11-27 23h17.20.401846 +0530,
45,3,1,7,1,14.762512500019511,,14.749601899995469,14.762512500019511,15.761721899994882,15.761721899994882,16.26126810000278,16.26126810000278,16.56101689999923,16.56101689999923,16.72924030001741,up,0,0.16646350000519305,None,1,Hirva,001,2023-11-27_23h17.06.690,Final_Project,2023.2.3,59.98685088342161,2023-11-27 23h17.20.401846 +0530,
45,4,0,8,1,16.744289900001604,,16.73472999999649,16.744289900001604,17.743547199992463,17.743547199992463,18.243173199996818,18.243173199996818,18.542817000008654,18.542817000008654,18.777324099995894,up,1,0.22795010000118054,None,0,Hirva,001,2023-11-27_23h17.06.690,Final_Project,2023.2.3,59.98685088342161,2023-11-27 23h17.20.401846 +0530,
0,4,1,9,0,18.792637100006687,,18.78350760001922,18.792637100006687,19.791861000005156,19.791861000005156,20.29151519999141,20.29151519999141,20.59127209999133,20.59127209999133,20.80882860001293,down,1,0.21450960001675412,None,-5,Hirva,001,2023-11-27_23h17.06.690,Final_Project,2023.2.3,59.98685088342161,2023-11-27 23h17.20.401846 +0530,
0,5,0,10,0,20.82423810000182,,20.81050240001059,20.82423810000182,21.823655100015458,21.823655100015458,22.32306610001251,22.32306610001251,22.622820599994157,22.622820599994157,22.82360500001232,up,1,0.19499970000470057,None,0,Hirva,001,2023-11-27_23h17.06.690,Final_Project,2023.2.3,59.98685088342161,2023-11-27 23h17.20.401846 +0530,
45,5,1,11,1,22.839513200015062,,22.82536099999561,22.839513200015062,23.838569700019434,23.838569700019434,24.338292500004172,24.338292500004172,24.637850400002208,24.637850400002208,24.92235740000615,down,1,0.28015499998582527,None,-3,Hirva,001,2023-11-27_23h17.06.690,Final_Project,2023.2.3,59.98685088342161,2023-11-27 23h17.20.401846 +0530,
0,6,0,12,0,24.93765330000315,,24.92367690001265,24.93765330000315,25.93688029999612,25.93688029999612,26.436456199997338,26.436456199997338,26.736178999999538,26.736178999999538,27.070079900004202,up,1,0.319971799995983,None,0,Hirva,001,2023-11-27_23h17.06.690,Final_Project,2023.2.3,59.98685088342161,2023-11-27 23h17.20.401846 +0530,
45,6,1,13,1,27.08592850001878,,27.071180200000526,27.08592850001878,28.085053300019354,28.085053300019354,28.58475730000646,28.58475730000646,28.88432169999578,28.88432169999578,29.28536370000802,up,1,0.3968118999910075,None,0,Hirva,001,2023-11-27_23h17.06.690,Final_Project,2023.2.3,59.98685088342161,2023-11-27 23h17.20.401846 +0530,
45,7,0,14,1,29.300452600000426,,29.287986400013324,29.300452600000426,30.29975090001244,30.29975090001244,30.7992632999958,30.7992632999958,31.09914679999929,31.09914679999929,31.366788000013912,down,1,0.2515803999849595,None,-4,Hirva,001,2023-11-27_23h17.06.690,Final_Project,2023.2.3,59.98685088342161,2023-11-27 23h17.20.401846 +0530,
0,7,1,15,0,31.382259100006195,,31.36859560001176,31.382259100006195,32.38142869999865,32.38142869999865,32.88109350000741,32.88109350000741,33.18088890000945,33.18088890000945,33.46625560001121,down,1,0.2837878999998793,None,1,Hirva,001,2023-11-27_23h17.06.690,Final_Project,2023.2.3,59.98685088342161,2023-11-27 23h17.20.401846 +0530,
0,8,0,16,0,33.48055460001342,,33.468217599991476,33.48055460001342,34.47979939999641,34.47979939999641,34.97937750001438,34.97937750001438,35.27913080001599,35.27913080001599,35.897900400013896,down,1,0.6167077000136487,None,2,Hirva,001,2023-11-27_23h17.06.690,Final_Project,2023.2.3,59.98685088342161,2023-11-27 23h17.20.401846 +0530,
45,8,1,17,1,35.91195989999687,,35.90637879999122,35.91195989999687,36.91134730001795,36.92774840001948,37.41081190001569,37.41081190001569,37.71047140000155,37.71047140000155,37.928075000003446,up,1,0.21525649999966845,None,0,Hirva,001,2023-11-27_23h17.06.690,Final_Project,2023.2.3,59.98685088342161,2023-11-27 23h17.20.401846 +0530,
45,9,0,18,1,37.943414500012295,,37.929429800016806,37.943414500012295,38.94258239999181,38.94258239999181,39.44242710000253,39.44242710000253,39.74192420000327,39.74192420000327,39.993169299996225,down,1,0.24679279999691062,None,-2,Hirva,001,2023-11-27_23h17.06.690,Final_Project,2023.2.3,59.98685088342161,2023-11-27 23h17.20.401846 +0530,
0,9,1,19,0,40.00857309999992,,39.99549689999549,40.00857309999992,41.00779020000482,41.00779020000482,41.5073190999974,41.5073190999974,41.8070520000183,41.8070520000183,42.07513770001242,up,1,0.25625100001343526,None,0,Hirva,001,2023-11-27_23h17.06.690,Final_Project,2023.2.3,59.98685088342161,2023-11-27 23h17.20.401846 +0530,
0,10,0,20,0,42.09005840000464,,42.076901699998416,42.09005840000464,43.089656500000274,43.089656500000274,43.58874310000101,43.58874310000101,43.88858160001109,43.88858160001109,44.356180000002496,down,0,0.45731870000599883,None,0,Hirva,001,2023-11-27_23h17.06.690,Final_Project,2023.2.3,59.98685088342161,2023-11-27 23h17.20.401846 +0530,
45,10,1,21,1,44.37164630001644,,44.35842070000945,44.37164630001644,45.37085579999257,45.37085579999257,45.87040980000165,45.87040980000165,46.170208399998955,46.170208399998955,46.38893340001232,down,1,0.20518119999906048,None,-5,Hirva,001,2023-11-27_23h17.06.690,Final_Project,2023.2.3,59.98685088342161,2023-11-27 23h17.20.401846 +0530,
45,11,0,22,1,46.40324089999194,,46.39190960000269,46.40324089999194,47.40252100001089,47.40252100001089,47.90216319999308,47.90216319999308,48.201804300013464,48.201804300013464,48.73541069999919,up,1,0.5226872000203002,None,0,Hirva,001,2023-11-27_23h17.06.690,Final_Project,2023.2.3,59.98685088342161,2023-11-27 23h17.20.401846 +0530,
0,11,1,23,0,48.75134760001674,,48.73689319999539,48.75134760001674,49.7504462999932,49.7504462999932,50.25024530000519,50.25024530000519,50.54989120000391,50.54989120000391,50.76834519999102,up,1,0.20276089999242686,None,0,Hirva,001,2023-11-27_23h17.06.690,Final_Project,2023.2.3,59.98685088342161,2023-11-27 23h17.20.401846 +0530,
0,12,0,24,0,50.78279409999959,,50.77184689999558,50.78279409999959,51.78199129999848,51.78199129999848,52.281651299999794,52.281651299999794,52.58132170001045,52.58132170001045,53.18172590000904,down,0,0.5865948999999091,None,0,Hirva,001,2023-11-27_23h17.06.690,Final_Project,2023.2.3,59.98685088342161,2023-11-27 23h17.20.401846 +0530,
45,12,1,25,1,53.19764620001661,,53.18298740001046,53.19764620001661,54.19684409999172,54.19684409999172,54.69648980000056,54.69648980000056,54.996507200005,54.996507200005,55.247812100016745,up,1,0.24160029998165555,None,0,Hirva,001,2023-11-27_23h17.06.690,Final_Project,2023.2.3,59.98685088342161,2023-11-27 23h17.20.401846 +0530,
0,13,0,26,0,55.26267739999457,,55.251911200000905,55.26267739999457,56.26190740001039,56.26190740001039,56.76148040001863,56.76148040001863,57.06119609999587,57.06119609999587,57.29611369999475,down,1,0.22515820001717657,None,-5,Hirva,001,2023-11-27_23h17.06.690,Final_Project,2023.2.3,59.98685088342161,2023-11-27 23h17.20.401846 +0530,
45,13,1,27,1,57.311106100009056,,57.29884500001208,57.311106100009056,58.31015910001588,58.32658399999491,58.8100182999915,58.8100182999915,59.109450399992056,59.109450399992056,59.56015170001774,up,1,0.44086820000666194,None,0,Hirva,001,2023-11-27_23h17.06.690,Final_Project,2023.2.3,59.98685088342161,2023-11-27 23h17.20.401846 +0530,
45,14,0,28,1,59.575545800005784,,59.56191600000602,59.575545800005784,60.57478260001517,60.57478260001517,61.074398500000825,61.074398500000825,61.37405710000894,61.37405710000894,61.77563089999603,down,1,0.3871062999824062,None,4,Hirva,001,2023-11-27_23h17.06.690,Final_Project,2023.2.3,59.98685088342161,2023-11-27 23h17.20.401846 +0530,
0,14,1,29,0,61.79056379999383,,61.7782378999982,61.79056379999383,62.789872399996966,62.789872399996966,63.289587600011146,63.289587600011146,63.58922240001266,63.58922240001266,64.08978790001129,up,0,0.4893551999994088,None,1,Hirva,001,2023-11-27_23h17.06.690,Final_Project,2023.2.3,59.98685088342161,2023-11-27 23h17.20.401846 +0530,
0,15,0,30,0,64.1054257999931,,64.09138950001216,64.1054257999931,65.10461520001991,65.10461520001991,65.6041508000053,65.6041508000053,65.90401759999804,65.90401759999804,66.17168679999304,up,1,0.26386219999403693,None,0,Hirva,001,2023-11-27_23h17.06.690,Final_Project,2023.2.3,59.98685088342161,2023-11-27 23h17.20.401846 +0530,
45,15,1,31,1,66.18726850001258,,66.17341049999231,66.18726850001258,67.18634210000164,67.20281020001858,67.68574899999658,67.68574899999658,67.98551500000758,67.98551500000758,68.18696710001677,down,1,0.18541710000135936,None,-5,Hirva,001,2023-11-27_23h17.06.690,Final_Project,2023.2.3,59.98685088342161,2023-11-27 23h17.20.401846 +0530,
45,16,0,32,1,68.2019791000057,,68.1885348999931,68.2019791000057,69.2012137999991,69.2012137999991,69.70093150000321,69.70093150000321,70.00053390001995,70.00053390001995,70.26813400001265,up,1,0.26048029999947175,None,0,Hirva,001,2023-11-27_23h17.06.690,Final_Project,2023.2.3,59.98685088342161,2023-11-27 23h17.20.401846 +0530,
0,16,1,33,0,70.28380170001765,,70.27069750000373,70.28380170001765,71.28288040001644,71.29958510000142,71.78263100000913,71.78263100000913,72.08227660000557,72.08227660000557,72.43439539999235,up,1,0.3479473000043072,None,0,Hirva,001,2023-11-27_23h17.06.690,Final_Project,2023.2.3,59.98685088342161,2023-11-27 23h17.20.401846 +0530,
45,17,0,34,1,72.44867430001614,,72.43808560000616,72.44867430001614,73.44776840001578,73.44776840001578,73.94741379999323,73.94741379999323,74.24704670000938,74.24704670000938,74.61753020001925,up,1,0.36743630000273697,None,0,Hirva,001,2023-11-27_23h17.06.690,Final_Project,2023.2.3,59.98685088342161,2023-11-27 23h17.20.401846 +0530,
0,17,1,35,0,74.63009970000712,,74.62070570001379,74.63009970000712,75.62925850000465,75.62925850000465,76.1289619000163,76.1289619000163,76.42865050002001,76.42865050002001,76.76250660000369,up,1,0.3298930999881122,None,0,Hirva,001,2023-11-27_23h17.06.690,Final_Project,2023.2.3,59.98685088342161,2023-11-27 23h17.20.401846 +0530,
45,18,0,36,1,76.77834240000811,,76.764345100004,76.77834240000811,77.77757160001784,77.79431759999716,78.2770651000028,78.2770651000028,78.57682410001871,78.57682410001871,78.82757500000298,up,1,0.23549290001392365,None,0,Hirva,001,2023-11-27_23h17.06.690,Final_Project,2023.2.3,59.98685088342161,2023-11-27 23h17.20.401846 +0530,
0,18,1,37,0,78.8434222000069,,78.82912130001932,78.8434222000069,79.84245349999401,79.85897550001391,80.34196250000969,80.34196250000969,80.64188110001851,80.64188110001851,80.92767550001736,up,1,0.28030650000437163,None,0,Hirva,001,2023-11-27_23h17.06.690,Final_Project,2023.2.3,59.98685088342161,2023-11-27 23h17.20.401846 +0530,
45,19,0,38,1,80.94155380001757,,80.93124360000365,80.94155380001757,81.94079739999142,81.94079739999142,82.44041030001245,82.44041030001245,82.74007490000804,82.74007490000804,83.07451080001192,down,1,0.3255433999875095,None,4,Hirva,001,2023-11-27_23h17.06.690,Final_Project,2023.2.3,59.98685088342161,2023-11-27 23h17.20.401846 +0530,
0,19,1,39,0,83.08981020000647,,83.07747930000187,83.08981020000647,84.08896349999122,84.08896349999122,84.58972920000087,84.58972920000087,84.88836670000455,84.90481720000389,85.18930440000258,down,1,0.2939589000015985,None,-5,Hirva,001,2023-11-27_23h17.06.690,Final_Project,2023.2.3,59.98685088342161,2023-11-27 23h17.20.401846 +0530,
0,20,0,40,0,85.20448340001167,,85.19179929999518,85.20448340001167,86.20389130001422,86.20389130001422,86.70355199999176,86.70355199999176,87.00314670000807,87.00314670000807,87.2385092000186,up,0,0.23168130000703968,None,1,Hirva,001,2023-11-27_23h17.06.690,Final_Project,2023.2.3,59.98685088342161,2023-11-27 23h17.20.401846 +0530,
45,20,1,41,1,87.25279719999526,,87.24042129999725,87.25279719999526,88.25335790001554,88.25335790001554,88.76864850000129,88.75166959999478,89.05135170000722,89.05135170000722,89.21935689999373,up,1,0.16210770001634955,None,0,Hirva,001,2023-11-27_23h17.06.690,Final_Project,2023.2.3,59.98685088342161,2023-11-27 23h17.20.401846 +0530,
0,21,0,42,0,89.2348750999954,,89.22145440001623,89.2348750999954,90.23390900000231,90.23390900000231,90.73354960000142,90.73354960000142,91.03320629999507,91.03320629999507,91.31775280000875,down,1,0.2686806000128854,None,2,Hirva,001,2023-11-27_23h17.06.690,Final_Project,2023.2.3,59.98685088342161,2023-11-27 23h17.20.401846 +0530,
45,21,1,43,1,91.3330351000186,,91.31982540001627,91.3330351000186,92.33345170001849,92.33345170001849,92.84825420001289,92.83184480000637,93.13186900000437,93.13186900000437,93.3991891000187,up,1,0.25605940000968985,None,0,Hirva,001,2023-11-27_23h17.06.690,Final_Project,2023.2.3,59.98685088342161,2023-11-27 23h17.20.401846 +0530,
0,22,0,44,0,93.41470900000422,,93.40136519999942,93.41470900000422,94.41380110001774,94.43053090001922,94.91353320001508,94.91353320001508,95.21316650000517,95.21316650000517,95.44743530001142,up,1,0.22691880000638776,None,0,Hirva,001,2023-11-27_23h17.06.690,Final_Project,2023.2.3,59.98685088342161,2023-11-27 23h17.20.401846 +0530,
45,22,1,45,1,95.46292920000269,,95.44961870001862,95.46292920000269,96.46214970000437,96.46214970000437,96.96201310001197,96.96201310001197,97.26146820001304,97.26146820001304,97.57894040000974,down,0,0.30439070001011714,None,0,Hirva,001,2023-11-27_23h17.06.690,Final_Project,2023.2.3,59.98685088342161,2023-11-27 23h17.20.401846 +0530,
45,23,0,46,1,97.59430799999973,,97.58490630000597,97.59430799999973,98.59359289999702,98.59359289999702,99.09307299999637,99.09307299999637,99.39301630001864,99.39301630001864,99.52728969999589,up,1,0.12688870000420138,None,0,Hirva,001,2023-11-27_23h17.06.690,Final_Project,2023.2.3,59.98685088342161,2023-11-27 23h17.20.401846 +0530,
0,23,1,47,0,99.54275150000467,,99.5299636000127,99.54275150000467,100.54190129999188,100.54190129999188,101.04163469999912,101.04163469999912,101.34184559999267,101.34184559999267,101.67624910001177,down,1,0.32754639998893254,None,-2,Hirva,001,2023-11-27_23h17.06.690,Final_Project,2023.2.3,59.98685088342161,2023-11-27 23h17.20.401846 +0530,
45,24,0,48,1,101.69124879999436,,101.67797829999472,101.69124879999436,102.69014459999744,102.69014459999744,103.18971090001287,103.18971090001287,103.48988730000565,103.48988730000565,104.04036710000946,up,1,0.5335003999934997,None,0,Hirva,001,2023-11-27_23h17.06.690,Final_Project,2023.2.3,59.98685088342161,2023-11-27 23h17.20.401846 +0530,
0,24,1,49,0,104.05583490000572,,104.043256200006,104.05583490000572,105.05507140001282,105.05507140001282,105.55473040000652,105.55473040000652,105.85443010000745,105.85443010000745,106.18854350000038,up,0,0.32783419999759644,None,-2,Hirva,001,2023-11-27_23h17.06.690,Final_Project,2023.2.3,59.98685088342161,2023-11-27 23h17.20.401846 +0530,
45,25,0,50,1,106.20428190001985,,106.19012780001503,106.20428190001985,107.20333489999757,107.21998160000658,107.70288339999388,107.70288339999388,108.0026240000152,108.0026240000152,108.45333370001754,down,1,0.4340533999784384,None,-2,Hirva,001,2023-11-27_23h17.06.690,Final_Project,2023.2.3,59.98685088342161,2023-11-27 23h17.20.401846 +0530,
0,25,1,51,0,108.4688834999979,,108.45504470000742,108.4688834999979,109.46817609999562,109.46817609999562,109.96784130000742,109.96784130000742,110.26770349999424,110.26770349999424,110.53492320000078,down,1,0.2536557000130415,None,-5,Hirva,001,2023-11-27_23h17.06.690,Final_Project,2023.2.3,59.98685088342161,2023-11-27 23h17.20.401846 +0530,
45,26,0,52,1,110.55061550001847,,110.53713559999596,110.55061550001847,111.54973460000474,111.54973460000474,112.04953980000573,112.04953980000573,112.35023370001,112.35023370001,112.6504108000081,up,1,0.28519969998160377,None,0,Hirva,001,2023-11-27_23h17.06.690,Final_Project,2023.2.3,59.98685088342161,2023-11-27 23h17.20.401846 +0530,
0,26,1,53,0,112.66554790001828,,112.65321160000167,112.66554790001828,113.66469040000811,113.66469040000811,114.16426340001635,114.16426340001635,114.46410489999107,114.46410489999107,115.26399120001588,down,0,0.7839381999801844,None,0,Hirva,001,2023-11-27_23h17.06.690,Final_Project,2023.2.3,59.98685088342161,2023-11-27 23h17.20.401846 +0530,
45,27,0,54,1,115.27981559999171,,115.2652156999975,115.27981559999171,116.27892810001504,116.27892810001504,116.77883809999912,116.77883809999912,117.07841980000376,117.07841980000376,117.39662400001544,down,1,0.30710089998319745,None,-4,Hirva,001,2023-11-27_23h17.06.690,Final_Project,2023.2.3,59.98685088342161,2023-11-27 23h17.20.401846 +0530,
0,27,1,55,0,117.41157670001849,,117.39865210000426,117.41157670001849,118.41073820000747,118.41073820000747,118.9104913000192,118.9104913000192,119.21011370001361,119.21011370001361,119.51107810001122,up,1,0.28958520002197474,None,0,Hirva,001,2023-11-27_23h17.06.690,Final_Project,2023.2.3,59.98685088342161,2023-11-27 23h17.20.401846 +0530,
0,28,0,56,0,119.52633439999772,,119.5132159999921,119.52633439999772,120.52603559999261,120.52603559999261,121.02521870000055,121.02521870000055,121.32476479999605,121.32476479999605,121.69256620001397,up,1,0.35448470001574606,None,0,Hirva,001,2023-11-27_23h17.06.690,Final_Project,2023.2.3,59.98685088342161,2023-11-27 23h17.20.401846 +0530,
45,28,1,57,1,121.70914360001916,,121.69438140001148,121.70914360001916,122.70722490001936,122.72362930001691,123.20695290001458,123.20695290001458,123.50668560000486,123.50668560000486,123.87363509999705,up,1,0.3560818000114523,None,0,Hirva,001,2023-11-27_23h17.06.690,Final_Project,2023.2.3,59.98685088342161,2023-11-27 23h17.20.401846 +0530,
45,29,0,58,1,123.88966210000217,,123.87517810001737,123.88966210000217,124.88891140001942,124.90552780000144,125.3884737000044,125.3884737000044,125.68816200000583,125.68816200000583,126.02169560000766,up,1,0.3211946999945212,None,0,Hirva,001,2023-11-27_23h17.06.690,Final_Project,2023.2.3,59.98685088342161,2023-11-27 23h17.20.401846 +0530,
0,29,1,59,0,126.03777260001516,,126.0229404999991,126.03777260001516,127.03700700000627,127.03700700000627,127.53673350001918,127.53673350001918,127.83785770001123,127.83785770001123,128.28735550001147,down,0,0.43786269999691285,None,0,Hirva,001,2023-11-27_23h17.06.690,Final_Project,2023.2.3,59.98685088342161,2023-11-27 23h17.20.401846 +0530,
0,30,0,60,0,128.3026676000154,,128.2900312000129,128.3026676000154,129.30171800000244,129.30171800000244,129.80142609999166,129.80142609999166,130.10116340001696,130.10116340001696,130.2027682000189,up,1,0.08970109999063425,None,0,Hirva,001,2023-11-27_23h17.06.690,Final_Project,2023.2.3,59.98685088342161,2023-11-27 23h17.20.401846 +0530,
45,30,1,61,1,130.21754650000366,,130.20570670001325,130.21754650000366,131.2167032000143,131.2167032000143,131.71635740000056,131.71635740000056,132.0161669999943,132.0161669999943,132.0341316999984,up,0,0.008255299995653331,None,-5,Hirva,001,2023-11-27_23h17.06.690,Final_Project,2023.2.3,59.98685088342161,2023-11-27 23h17.20.401846 +0530,
0,31,0,62,0,132.0496020000137,,132.03633689999697,132.0496020000137,133.0488234999939,133.0488234999939,133.5497554000176,133.5497554000176,133.84806020001997,133.864553899999,134.05023730001994,up,1,0.20033270001295023,None,0,Hirva,001,2023-11-27_23h17.06.690,Final_Project,2023.2.3,59.98685088342161,2023-11-27 23h17.20.401846 +0530,
45,31,1,63,1,134.06438180000987,,134.05351820000215,134.06438180000987,135.06350039999234,135.06350039999234,135.56324240000686,135.56324240000686,135.86281700001564,135.86281700001564,136.0146636000136,up,0,0.1443276999925729,None,-2,Hirva,001,2023-11-27_23h17.06.690,Final_Project,2023.2.3,59.98685088342161,2023-11-27 23h17.20.401846 +0530,
0,32,0,64,0,136.02970070001902,,136.01734849999775,136.02970070001902,137.02883650001604,137.04544310001074,137.5285882000171,137.5285882000171,137.82819220001693,137.82819220001693,138.04590240001562,up,1,0.20663299999432638,None,0,Hirva,001,2023-11-27_23h17.06.690,Final_Project,2023.2.3,59.98685088342161,2023-11-27 23h17.20.401846 +0530,
45,32,1,65,1,138.06157029999304,,138.04762860000483,138.06157029999304,139.06028860001243,139.07715329999337,139.5598400000017,139.5598400000017,139.85958469999605,139.85958469999605,140.06056770001305,up,0,0.19042319999425672,None,2,Hirva,001,2023-11-27_23h17.06.690,Final_Project,2023.2.3,59.98685088342161,2023-11-27 23h17.20.401846 +0530,
45,33,0,66,1,140.07673309999518,,140.06197549999342,140.07673309999518,141.07565300000715,141.09228490001988,141.57515580000472,141.57515580000472,141.87483330001123,141.87483330001123,142.30851940001594,up,1,0.4206320999946911,None,0,Hirva,001,2023-11-27_23h17.06.690,Final_Project,2023.2.3,59.98685088342161,2023-11-27 23h17.20.401846 +0530,
0,33,1,67,0,142.32439069999964,,142.31058240000857,142.32439069999964,143.3235903000168,143.3235903000168,143.82316950001405,143.82316950001405,144.12297940001008,144.12297940001008,144.5735124000057,down,1,0.4369418999995105,None,3,Hirva,001,2023-11-27_23h17.06.690,Final_Project,2023.2.3,59.98685088342161,2023-11-27 23h17.20.401846 +0530,
45,34,0,68,1,144.58984639999107,,144.57495209999615,144.58984639999107,145.58841339999344,145.60493600001791,146.08798760001082,146.08798760001082,146.38779330000398,146.38779330000398,146.63946860001306,up,1,0.24222939999890514,None,0,Hirva,001,2023-11-27_23h17.06.690,Final_Project,2023.2.3,59.98685088342161,2023-11-27 23h17.20.401846 +0530,
0,34,1,69,0,146.65408619999653,,146.64356840000255,146.65408619999653,147.65323850000277,147.65323850000277,148.1530466999975,148.1530466999975,148.45251530001406,148.45251530001406,148.78776959999232,down,1,0.3247648999968078,None,3,Hirva,001,2023-11-27_23h17.06.690,Final_Project,2023.2.3,59.98685088342161,2023-11-27 23h17.20.401846 +0530,
45,35,0,70,1,148.80222579999827,,148.79055030000745,148.80222579999827,149.8016120000102,149.8016120000102,150.3011305000109,150.3011305000109,150.60075569999753,150.60075569999753,150.85204430000158,down,1,0.24675550000392832,None,-4,Hirva,001,2023-11-27_23h17.06.690,Final_Project,2023.2.3,59.98685088342161,2023-11-27 23h17.20.401846 +0530,
0,35,1,71,0,150.86740670001018,,150.85455680001178,150.86740670001018,151.86661090000416,151.86661090000416,152.3662897000031,152.3662897000031,152.66594040000928,152.66594040000928,152.86727950000204,up,0,0.19391319999704137,None,2,Hirva,001,2023-11-27_23h17.06.690,Final_Project,2023.2.3,59.98685088342161,2023-11-27 23h17.20.401846 +0530,
45,36,0,72,1,152.88238719999208,,152.87033820000943,152.88238719999208,153.88166519999504,153.88166519999504,154.3820226000098,154.3820226000098,154.68105790001573,154.69749600000796,154.81644520000555,up,0,0.11772889998974279,None,4,Hirva,001,2023-11-27_23h17.06.690,Final_Project,2023.2.3,59.98685088342161,2023-11-27 23h17.20.401846 +0530,
0,36,1,73,0,154.83078750001732,,154.81939150000107,154.83078750001732,155.82998149999185,155.82998149999185,156.32981180000934,156.32981180000934,156.62937290000264,156.62937290000264,156.74763540001004,up,1,0.11493039998458698,None,0,Hirva,001,2023-11-27_23h17.06.690,Final_Project,2023.2.3,59.98685088342161,2023-11-27 23h17.20.401846 +0530,
45,37,0,74,1,156.76258670000243,,156.75385380000807,156.76258670000243,157.7617295999953,157.7784449000028,158.2613832000061,158.2613832000061,158.56111959999544,158.56111959999544,158.77862570001162,up,1,0.2120316999789793,None,0,Hirva,001,2023-11-27_23h17.06.690,Final_Project,2023.2.3,59.98685088342161,2023-11-27 23h17.20.401846 +0530,
0,37,1,75,0,158.79409919999307,,158.78111120001995,158.79409919999307,159.79341899999417,159.79341899999417,160.29274060000898,160.29274060000898,160.59260080000968,160.59260080000968,160.7108317000093,up,1,0.11213529997621663,None,0,Hirva,001,2023-11-27_23h17.06.690,Final_Project,2023.2.3,59.98685088342161,2023-11-27 23h17.20.401846 +0530,
0,38,0,76,0,160.72618170001078,,160.7140932000184,160.72618170001078,161.72607460001018,161.7416591999936,162.2412333000102,162.2248169000086,162.52564430001075,162.52564430001075,163.22504889999982,down,1,0.6854190999874845,None,1,Hirva,001,2023-11-27_23h17.06.690,Final_Project,2023.2.3,59.98685088342161,2023-11-27 23h17.20.401846 +0530,
45,38,1,77,1,163.24039769999217,,163.2274515000172,163.24039769999217,164.2396515000146,164.2396515000146,164.7392930999922,164.7392930999922,165.0388751999999,165.0388751999999,165.20736309999484,up,0,0.16454839997459203,None,-5,Hirva,001,2023-11-27_23h17.06.690,Final_Project,2023.2.3,59.98685088342161,2023-11-27 23h17.20.401846 +0530,
45,39,0,78,1,165.2223486000148,,165.21007120001013,165.2223486000148,166.2214066000015,166.2214066000015,166.72111119999317,166.72111119999317,167.0207946000155,167.0207946000155,167.23844230000395,down,1,0.20903050000197254,None,-3,Hirva,001,2023-11-27_23h17.06.690,Final_Project,2023.2.3,59.98685088342161,2023-11-27 23h17.20.401846 +0530,
0,39,1,79,0,167.25386940001044,,167.24133129999973,167.25386940001044,168.253289699991,168.253289699991,168.75279110000702,168.75279110000702,169.0526441000111,169.0526441000111,169.48722080001608,up,1,0.4173696999787353,None,0,Hirva,001,2023-11-27_23h17.06.690,Final_Project,2023.2.3,59.98685088342161,2023-11-27 23h17.20.401846 +0530,
0,40,0,80,0,169.50223010001355,,169.4904794000031,169.50223010001355,170.50138090000837,170.51792360001127,171.00087380001787,171.00087380001787,171.30054560001008,171.30054560001008,171.53453150001587,down,1,0.22839150001527742,None,3,Hirva,001,2023-11-27_23h17.06.690,Final_Project,2023.2.3,59.98685088342161,2023-11-27 23h17.20.401846 +0530,
45,40,1,81,1,171.55046550001134,,171.53597430000082,171.55046550001134,172.54955039999913,172.54955039999913,173.04926080000587,173.04926080000587,173.34906410000985,173.34906410000985,173.60164830001304,down,0,0.250971200002823,None,0,Hirva,001,2023-11-27_23h17.06.690,Final_Project,2023.2.3,59.98685088342161,2023-11-27 23h17.20.401846 +0530,
0,41,0,82,0,173.61537169999792,,173.6041676000168,173.61537169999792,174.61463190001086,174.61463190001086,175.11436700000195,175.11436700000195,175.41411650000373,175.41411650000373,175.69885879999492,down,1,0.2726625000068452,None,3,Hirva,001,2023-11-27_23h17.06.690,Final_Project,2023.2.3,59.98685088342161,2023-11-27 23h17.20.401846 +0530,
45,41,1,83,1,175.71354930000962,,175.70047090001754,175.71354930000962,176.71293300000252,176.71293300000252,177.21240540000144,177.21240540000144,177.51225910001085,177.51225910001085,177.7975681000098,up,1,0.2807770000072196,None,0,Hirva,001,2023-11-27_23h17.06.690,Final_Project,2023.2.3,59.98685088342161,2023-11-27 23h17.20.401846 +0530,
45,42,0,84,1,177.8118485000159,,177.80018530000234,177.8118485000159,178.8112540000002,178.8112540000002,179.31075530001544,179.31075530001544,179.61039079999318,179.61039079999318,179.9110323000059,up,0,0.29048510000575334,None,-2,Hirva,001,2023-11-27_23h17.06.690,Final_Project,2023.2.3,59.98685088342161,2023-11-27 23h17.20.401846 +0530,
0,42,1,85,0,179.92674789999728,,179.91295530000934,179.92674789999728,180.92585830000462,180.92585830000462,181.42560210000374,181.42560210000374,181.72511430000304,181.72511430000304,182.14390580001054,up,1,0.4147077999950852,None,0,Hirva,001,2023-11-27_23h17.06.690,Final_Project,2023.2.3,59.98685088342161,2023-11-27 23h17.20.401846 +0530,
45,43,0,86,1,182.15842570000677,,182.1472219999996,182.15842570000677,183.15753319999203,183.15753319999203,183.65717489999952,183.65717489999952,183.95681190001778,183.95681190001778,184.15924559999257,up,1,0.19274919998133555,None,0,Hirva,001,2023-11-27_23h17.06.690,Final_Project,2023.2.3,59.98685088342161,2023-11-27 23h17.20.401846 +0530,
0,43,1,87,0,184.17325490000076,,184.1630540000042,184.17325490000076,185.17226910000318,185.17226910000318,185.6718741999939,185.6718741999939,185.97170530000585,185.97170530000585,186.73922230000608,up,0,0.7512885000032838,None,-2,Hirva,001,2023-11-27_23h17.06.690,Final_Project,2023.2.3,59.98685088342161,2023-11-27 23h17.20.401846 +0530,
45,44,0,88,1,186.75460440001916,,186.74121330000344,186.75460440001916,187.75383659999352,187.75383659999352,188.25332479999634,188.25332479999634,188.55316070001572,188.55316070001572,188.9207640000095,down,1,0.36253680000663735,None,2,Hirva,001,2023-11-27_23h17.06.690,Final_Project,2023.2.3,59.98685088342161,2023-11-27 23h17.20.401846 +0530,
0,44,1,89,0,188.9362434000068,,188.9228442000167,188.9362434000068,189.93526030000066,189.95203620000393,190.43490429999656,190.43490429999656,190.73452150000958,190.73452150000958,191.11850850001792,up,1,0.3777909000054933,None,0,Hirva,001,2023-11-27_23h17.06.690,Final_Project,2023.2.3,59.98685088342161,2023-11-27 23h17.20.401846 +0530,
45,45,0,90,1,191.13434360001702,,191.12008950000745,191.13434360001702,192.1334010999999,192.15019750001375,192.63304760001483,192.63304760001483,192.93279260001145,192.93279260001145,193.133624900016,up,1,0.193456300010439,None,0,Hirva,001,2023-11-27_23h17.06.690,Final_Project,2023.2.3,59.98685088342161,2023-11-27 23h17.20.401846 +0530,
0,45,1,91,0,193.149570700014,,193.13483719999203,193.149570700014,194.14853500001482,194.1649631000182,194.64816370001063,194.64816370001063,194.94785470000352,194.94785470000352,195.2328697000048,up,1,0.2778600000019651,None,0,Hirva,001,2023-11-27_23h17.06.690,Final_Project,2023.2.3,59.98685088342161,2023-11-27 23h17.20.401846 +0530,
45,46,0,92,1,195.24758160000783,,195.23633000001428,195.24758160000783,196.24677180001163,196.24677180001163,196.74646950000897,196.74646950000897,197.0460918000026,197.0460918000026,197.4972345000133,down,1,0.4381658999773208,None,-4,Hirva,001,2023-11-27_23h17.06.690,Final_Project,2023.2.3,59.98685088342161,2023-11-27 23h17.20.401846 +0530,
0,46,1,93,0,197.512284299999,,197.50168220000342,197.512284299999,198.51142339999205,198.51142339999205,199.0109449000156,199.0109449000156,199.31074320001062,199.31074320001062,199.6619073000038,up,1,0.34188959997845814,None,0,Hirva,001,2023-11-27_23h17.06.690,Final_Project,2023.2.3,59.98685088342161,2023-11-27 23h17.20.401846 +0530,
45,47,0,94,1,199.6774270000169,,199.6633826000034,199.6774270000169,200.6764449000184,200.69308610001463,201.1760278000147,201.1760278000147,201.47586560001946,201.47586560001946,201.61022249999223,up,1,0.12121589999878779,None,0,Hirva,001,2023-11-27_23h17.06.690,Final_Project,2023.2.3,59.98685088342161,2023-11-27 23h17.20.401846 +0530,
0,47,1,95,0,201.6256823000149,,201.61296749999747,201.6256823000149,202.62480019999202,202.62480019999202,203.12448240001686,203.12448240001686,203.42414370001643,203.42414370001643,203.6751840999932,up,1,0.2368613999860827,None,0,Hirva,001,2023-11-27_23h17.06.690,Final_Project,2023.2.3,59.98685088342161,2023-11-27 23h17.20.401846 +0530,
0,48,0,96,0,203.69066039999598,,203.677042299998,203.69066039999598,204.68985090000206,204.68985090000206,205.18943870000658,205.18943870000658,205.48930030001793,205.48930030001793,205.62358859999222,up,0,0.12373520000255667,None,3,Hirva,001,2023-11-27_23h17.06.690,Final_Project,2023.2.3,59.98685088342161,2023-11-27 23h17.20.401846 +0530,
45,48,1,97,1,205.6391624000098,,205.6254947000125,205.6391624000098,206.63823969999794,206.63823969999794,207.1378742000088,207.1378742000088,207.43757680000272,207.43757680000272,207.72193739999784,down,0,0.2742547999951057,None,0,Hirva,001,2023-11-27_23h17.06.690,Final_Project,2023.2.3,59.98685088342161,2023-11-27 23h17.20.401846 +0530,
0,49,0,98,0,207.7373436000198,,207.72691630001646,207.7373436000198,208.73644470001454,208.73644470001454,209.23614320001798,209.23614320001798,209.53590829999303,209.53590829999303,209.7374461000145,down,1,0.189707699988503,None,-5,Hirva,001,2023-11-27_23h17.06.690,Final_Project,2023.2.3,59.98685088342161,2023-11-27 23h17.20.401846 +0530,
45,49,1,99,1,209.75213900001836,,209.74464370001806,209.75213900001836,210.75141540000914,210.75141540000914,211.25095220000367,211.25095220000367,211.5507867000124,211.5507867000124,211.85179079999216,up,1,0.28688359999796376,None,0,Hirva,001,2023-11-27_23h17.06.690,Final_Project,2023.2.3,59.98685088342161,2023-11-27 23h17.20.401846 +0530,
0,50,0,100,0,211.86730800001533,,211.85337220001384,211.86730800001533,212.86640240001725,212.8832490000059,213.3660297000024,213.3660297000024,213.6659423999954,213.6659423999954,213.8852145000128,up,1,0.20600990002276376,None,0,Hirva,001,2023-11-27_23h17.06.690,Final_Project,2023.2.3,59.98685088342161,2023-11-27 23h17.20.401846 +0530,
45,50,1,101,1,213.89891760001774,,213.88891880001756,213.89891760001774,214.89794220001204,214.89794220001204,215.39772130001802,215.39772130001802,215.69740599999204,215.69740599999204,216.014842900011,down,1,0.30346599998301826,None,3,Hirva,001,2023-11-27_23h17.06.690,Final_Project,2023.2.3,59.98685088342161,2023-11-27 23h17.20.401846 +0530,
45,51,0,102,1,216.03072539999266,,216.01625430001877,216.03072539999266,217.02973169999314,217.04611739999382,217.52928950000205,217.52928950000205,217.82906320001348,217.82906320001348,218.14682500000345,up,1,0.30672730001970194,None,0,Hirva,001,2023-11-27_23h17.06.690,Final_Project,2023.2.3,59.98685088342161,2023-11-27 23h17.20.401846 +0530,
0,51,1,103,0,218.1620690000127,,218.14973380000447,218.1620690000127,219.16123739999603,219.17787869999302,219.66098230000352,219.66098230000352,219.96061000000918,219.96061000000918,220.22887240001,down,1,0.2601550999970641,None,-5,Hirva,001,2023-11-27_23h17.06.690,Final_Project,2023.2.3,59.98685088342161,2023-11-27 23h17.20.401846 +0530,
0,52,0,104,0,220.24347200000193,,220.23106520000147,220.24347200000193,221.24272780001047,221.24272780001047,221.7427518000186,221.7427518000186,222.0420829000068,222.0420829000068,222.54280180000933,down,1,0.49585919998935424,None,2,Hirva,001,2023-11-27_23h17.06.690,Final_Project,2023.2.3,59.98685088342161,2023-11-27 23h17.20.401846 +0530,
45,52,1,105,1,222.55864820000716,,222.5442796999996,222.55864820000716,223.55762750000576,223.5742402000178,224.05726220001816,224.05726220001816,224.35705489999964,224.35705489999964,224.7746649000037,down,1,0.40798930000164546,None,-2,Hirva,001,2023-11-27_23h17.06.690,Final_Project,2023.2.3,59.98685088342161,2023-11-27 23h17.20.401846 +0530,
0,53,0,106,0,224.7897851000016,,224.77667980000842,224.7897851000016,225.78969360000337,225.78969360000337,226.28864549999707,226.28864549999707,226.5882450999925,226.5882450999925,227.29040460000397,up,1,0.6913731999811716,None,0,Hirva,001,2023-11-27_23h17.06.690,Final_Project,2023.2.3,59.98685088342161,2023-11-27 23h17.20.401846 +0530,
45,53,1,107,1,227.30456940000295,,227.29224340000656,227.30456940000295,228.30383839999558,228.30383839999558,228.80342660000315,228.80342660000315,229.10308860000805,229.10308860000805,229.83940280001843,down,1,0.7192139000108,None,3,Hirva,001,2023-11-27_23h17.06.690,Final_Project,2023.2.3,59.98685088342161,2023-11-27 23h17.20.401846 +0530,
0,54,0,108,0,229.8524401000177,,229.8433828999987,229.8524401000177,230.85167180001736,230.85167180001736,231.35137190000387,231.35137190000387,231.65094360001967,231.65094360001967,232.11798380000982,up,1,0.452651200001128,None,0,Hirva,001,2023-11-27_23h17.06.690,Final_Project,2023.2.3,59.98685088342161,2023-11-27 23h17.20.401846 +0530,
45,54,1,109,1,232.13373709999723,,232.11942609999096,232.13373709999723,233.133178100019,233.133178100019,233.63261990001774,233.63261990001774,233.93364210001891,233.93364210001891,234.33475790001103,down,1,0.39603899998473935,None,-5,Hirva,001,2023-11-27_23h17.06.690,Final_Project,2023.2.3,59.98685088342161,2023-11-27 23h17.20.401846 +0530,
0,55,0,110,0,234.34874620000483,,234.33898060000502,234.34874620000483,235.3482215999975,235.36462780000875,235.84753630001796,235.84753630001796,236.14737449999666,236.14737449999666,236.44937560000108,down,1,0.28425789999892004,None,4,Hirva,001,2023-11-27_23h17.06.690,Final_Project,2023.2.3,59.98685088342161,2023-11-27 23h17.20.401846 +0530,
45,55,1,111,1,236.46370480000041,,236.4532698999974,236.46370480000041,237.4628706999938,237.4628706999938,237.9625178000133,237.9625178000133,238.26212120000855,238.26212120000855,238.64625530000194,down,0,0.37466760000097565,None,0,Hirva,001,2023-11-27_23h17.06.690,Final_Project,2023.2.3,59.98685088342161,2023-11-27 23h17.20.401846 +0530,
0,56,0,112,0,238.6617821000109,,238.64767259999644,238.6617821000109,239.66196719999425,239.66196719999425,240.17717310000444,240.16079330001958,240.46160740000778,240.46160740000778,240.7778990000079,up,1,0.31118699998478405,None,0,Hirva,001,2023-11-27_23h17.06.690,Final_Project,2023.2.3,59.98685088342161,2023-11-27 23h17.20.401846 +0530,
45,56,1,113,1,240.79363000000012,,240.78013790000114,240.79363000000012,241.79262110000127,241.80932780000148,242.29231710001477,242.29231710001477,242.59191940000164,242.59191940000164,243.04391790000955,up,1,0.44094179998501204,None,0,Hirva,001,2023-11-27_23h17.06.690,Final_Project,2023.2.3,59.98685088342161,2023-11-27 23h17.20.401846 +0530,
0,57,0,114,0,243.05826600000728,,243.0466871999961,243.05826600000728,244.05744020000566,244.05744020000566,244.55712610000046,244.55712610000046,244.85678600001847,244.85678600001847,245.2077213000157,down,1,0.34292809999897145,None,2,Hirva,001,2023-11-27_23h17.06.690,Final_Project,2023.2.3,59.98685088342161,2023-11-27 23h17.20.401846 +0530,
45,57,1,115,1,245.22298580000643,,245.2099511999986,245.22298580000643,246.22211339999922,246.22211339999922,246.72172920001321,246.72172920001321,247.02144770001178,247.02144770001178,247.2393027000071,up,1,0.2053641999955289,None,0,Hirva,001,2023-11-27_23h17.06.690,Final_Project,2023.2.3,59.98685088342161,2023-11-27 23h17.20.401846 +0530,
45,58,0,116,1,247.25480310001876,,247.24121810001088,247.25480310001876,248.25399440000183,248.25399440000183,248.75362950001727,248.75362950001727,249.05340699999942,249.05340699999942,249.30435250001028,up,1,0.24277429998619482,None,0,Hirva,001,2023-11-27_23h17.06.690,Final_Project,2023.2.3,59.98685088342161,2023-11-27 23h17.20.401846 +0530,
0,58,1,117,0,249.31969090001076,,249.30555910000112,249.31969090001076,250.3188106000016,250.3188106000016,250.81841559999157,250.81841559999157,251.11819639999885,251.11819639999885,251.2531896000146,up,1,0.11766620000707917,None,0,Hirva,001,2023-11-27_23h17.06.690,Final_Project,2023.2.3,59.98685088342161,2023-11-27 23h17.20.401846 +0530,
45,59,0,118,1,251.2680476999958,,251.25560200001928,251.2680476999958,252.26728090000688,252.26728090000688,252.766890400002,252.766890400002,253.06648320000386,253.06648320000386,253.65176440001233,down,1,0.5836169999965932,None,2,Hirva,001,2023-11-27_23h17.06.690,Final_Project,2023.2.3,59.98685088342161,2023-11-27 23h17.20.401846 +0530,
0,59,1,119,0,253.66606930000125,,253.65409630001523,253.66606930000125,254.66530290001538,254.66530290001538,255.1659426999977,255.1659426999977,255.46457149999333,255.48157329999958,255.69944339999347,up,1,0.22828660000232048,None,0,Hirva,001,2023-11-27_23h17.06.690,Final_Project,2023.2.3,59.98685088342161,2023-11-27 23h17.20.401846 +0530,
0,60,0,120,0,255.71434350000345,,255.70167810001294,255.71434350000345,256.7135825000005,256.7135825000005,257.2132141000184,257.2132141000184,257.5127787000092,257.5127787000092,257.78099480000674,down,1,0.2633532000181731,None,4,Hirva,001,2023-11-27_23h17.06.690,Final_Project,2023.2.3,59.98685088342161,2023-11-27 23h17.20.401846 +0530,
45,60,1,121,1,257.79619079999975,,257.7837359000114,257.79619079999975,258.79576910001924,258.79576910001924,259.2950614000147,259.2950614000147,259.59482620001654,259.59482620001654,259.9292567000084,up,0,0.31688140000915155,None,2,Hirva,001,2023-11-27_23h17.06.690,Final_Project,2023.2.3,59.98685088342161,2023-11-27 23h17.20.401846 +0530,
0,61,0,122,0,259.94441799999913,,259.9310306000116,259.94441799999913,260.9435417999921,260.9435417999921,261.44320169999264,261.44320169999264,261.74283580001793,261.74283580001793,262.0640500000154,down,1,0.3014070999925025,None,-3,Hirva,001,2023-11-27_23h17.06.690,Final_Project,2023.2.3,59.98685088342161,2023-11-27 23h17.20.401846 +0530,
45,61,1,123,1,262.07612959999824,,262.0692331000173,262.07612959999824,263.07521579999593,263.07521579999593,263.57476740001584,263.57476740001584,263.874604200013,263.874604200013,264.2084223999991,down,0,0.3287424999871291,None,0,Hirva,001,2023-11-27_23h17.06.690,Final_Project,2023.2.3,59.98685088342161,2023-11-27 23h17.20.401846 +0530,
45,62,0,124,1,264.22431769999093,,264.2104018999962,264.22431769999093,265.2233714000031,265.24003370001446,265.7230213000148,265.7230213000148,266.02273339999374,266.02273339999374,266.5441203000082,down,1,0.5191514999896754,None,4,Hirva,001,2023-11-27_23h17.06.690,Final_Project,2023.2.3,59.98685088342161,2023-11-27 23h17.20.401846 +0530,
0,62,1,125,0,266.55546800000593,,266.5475279999955,266.55546800000593,267.554615800007,267.554615800007,268.05443360001664,268.05443360001664,268.35391030000756,268.35391030000756,268.7560928000021,up,0,0.38509540000814013,None,-4,Hirva,001,2023-11-27_23h17.06.690,Final_Project,2023.2.3,59.98685088342161,2023-11-27 23h17.20.401846 +0530,
45,63,0,126,1,268.7704648000072,,268.7582775000192,268.7704648000072,269.76972670000396,269.76972670000396,270.2699465000187,270.2699465000187,270.56913310001255,270.58575440000277,271.102590399998,up,0,0.5271672999951988,None,-3,Hirva,001,2023-11-27_23h17.06.690,Final_Project,2023.2.3,59.98685088342161,2023-11-27 23h17.20.401846 +0530,
0,63,1,127,0,271.1186063000059,,271.1042240000097,271.1186063000059,272.1176253000158,272.1344417000073,272.61730869999155,272.61730869999155,272.91701239999384,272.91701239999384,273.2508778000192,up,1,0.3309400000143796,None,0,Hirva,001,2023-11-27_23h17.06.690,Final_Project,2023.2.3,59.98685088342161,2023-11-27 23h17.20.401846 +0530,
0,64,0,128,0,273.26675239999895,,273.25245719999657,273.26675239999895,274.26601759999176,274.26601759999176,274.76563080001506,274.76563080001506,275.06545300001744,275.06545300001744,275.283872400003,up,1,0.2145033999986481,None,0,Hirva,001,2023-11-27_23h17.06.690,Final_Project,2023.2.3,59.98685088342161,2023-11-27 23h17.20.401846 +0530,
45,64,1,129,1,275.2984938000154,,275.2866372000135,275.2984938000154,276.2974913000071,276.2974913000071,276.79761100001633,276.79761100001633,277.09668099999544,277.09668099999544,277.4814410000108,down,1,0.37984619999770075,None,3,Hirva,001,2023-11-27_23h17.06.690,Final_Project,2023.2.3,59.98685088342161,2023-11-27 23h17.20.401846 +0530,
0,65,0,130,0,277.49654900000314,,277.48604660001,277.49654900000314,278.49557560001267,278.49557560001267,278.9953851000173,278.9953851000173,279.29502650001086,279.29502650001086,279.56245900000795,up,1,0.25669830001425,None,0,Hirva,001,2023-11-27_23h17.06.690,Final_Project,2023.2.3,59.98685088342161,2023-11-27 23h17.20.401846 +0530,
45,65,1,131,1,279.57831240000087,,279.5669662000146,279.57831240000087,280.57759450000594,280.57759450000594,281.0770329000079,281.0770329000079,281.3767888000002,281.3767888000002,281.68135279999115,down,1,0.2843611999996938,None,4,Hirva,001,2023-11-27_23h17.06.690,Final_Project,2023.2.3,59.98685088342161,2023-11-27 23h17.20.401846 +0530,
45,66,0,132,1,281.69294760000776,,281.68666450001183,281.69294760000776,282.6921013999963,282.6921013999963,283.19177430000855,283.19177430000855,283.49159950000467,283.49159950000467,283.92573479999555,up,1,0.43077149998862296,None,0,Hirva,001,2023-11-27_23h17.06.690,Final_Project,2023.2.3,59.98685088342161,2023-11-27 23h17.20.401846 +0530,
0,66,1,133,0,283.9411762999953,,283.927139300009,283.9411762999953,284.9419695000106,284.9419695000106,285.4567187000066,285.4400270000042,285.7233135999995,285.7396660000086,286.1075584999926,down,1,0.3741384000168182,None,-5,Hirva,001,2023-11-27_23h17.06.690,Final_Project,2023.2.3,59.98685088342161,2023-11-27 23h17.20.401846 +0530,
45,67,0,134,1,286.12300250001135,,286.10978679999243,286.12300250001135,287.12213090001023,287.12213090001023,287.62186310000834,287.62186310000834,287.92148190000444,287.92148190000444,288.62364289999823,down,1,0.6956000000063796,None,-3,Hirva,001,2023-11-27_23h17.06.690,Final_Project,2023.2.3,59.98685088342161,2023-11-27 23h17.20.401846 +0530,
0,67,1,135,0,288.63739290001104,,288.62681849999353,288.63739290001104,289.6364838000154,289.6364838000154,290.1361048000108,290.1361048000108,290.4358705000195,290.4358705000195,290.6871652000118,down,1,0.25024710001889616,None,-4,Hirva,001,2023-11-27_23h17.06.690,Final_Project,2023.2.3,59.98685088342161,2023-11-27 23h17.20.401846 +0530,
45,68,0,136,1,290.7024870000023,,290.6886210000084,290.7024870000023,291.70162969999365,291.70162969999365,292.2012417000078,292.2012417000078,292.50098110002,292.50098110002,292.8855717999977,down,1,0.38157899997895584,None,1,Hirva,001,2023-11-27_23h17.06.690,Final_Project,2023.2.3,59.98685088342161,2023-11-27 23h17.20.401846 +0530,
0,68,1,137,0,292.90063139999984,,292.8879585000104,292.90063139999984,293.9009594999952,293.9009594999952,294.4161512000137,294.39952480001375,294.6992104999954,294.6992104999954,295.49974709999515,up,1,0.7969921000185423,None,0,Hirva,001,2023-11-27_23h17.06.690,Final_Project,2023.2.3,59.98685088342161,2023-11-27 23h17.20.401846 +0530,
45,69,0,138,1,295.51525699999183,,295.5008813000168,295.51525699999183,296.514445000008,296.514445000008,297.0139435000019,297.0139435000019,297.3136863000109,297.3136863000109,297.6985129000095,up,1,0.3708267999754753,None,0,Hirva,001,2023-11-27_23h17.06.690,Final_Project,2023.2.3,59.98685088342161,2023-11-27 23h17.20.401846 +0530,
0,69,1,139,0,297.7134510000178,,297.70131210002,297.7134510000178,298.71260050000274,298.71260050000274,299.2134383000084,299.2134383000084,299.51197730001877,299.5284115000104,299.9127235999913,up,1,0.3966787999961525,None,0,Hirva,001,2023-11-27_23h17.06.690,Final_Project,2023.2.3,59.98685088342161,2023-11-27 23h17.20.401846 +0530,
45,70,0,140,1,299.92804389999947,,299.9142560000182,299.92804389999947,300.92727139999624,300.92727139999624,301.4268379000132,301.4268379000132,301.7265291000076,301.7265291000076,302.1444024000084,down,0,0.41363920000731014,None,0,Hirva,001,2023-11-27_23h17.06.690,Final_Project,2023.2.3,59.98685088342161,2023-11-27 23h17.20.401846 +0530,
0,70,1,141,0,302.1596128999954,,302.1470002999995,302.1596128999954,303.15876489999937,303.15876489999937,303.6585301000159,303.6585301000159,303.9581615999923,303.9581615999923,304.24235350001254,down,1,0.2752510999853257,None,-3,Hirva,001,2023-11-27_23h17.06.690,Final_Project,2023.2.3,59.98685088342161,2023-11-27 23h17.20.401846 +0530,
45,71,0,142,1,304.2580171000154,,304.2438609999954,304.2580171000154,305.25712290001684,305.25712290001684,305.75689129999955,305.75689129999955,306.05659190000733,306.05659190000733,306.34117860000697,up,0,0.2812394999782555,None,1,Hirva,001,2023-11-27_23h17.06.690,Final_Project,2023.2.3,59.98685088342161,2023-11-27 23h17.20.401846 +0530,
0,71,1,143,0,306.35634260001825,,306.34350039999117,306.35634260001825,307.35601760001737,307.35601760001737,307.87145299999975,307.85513899999205,308.1546809000138,308.1546809000138,308.34062319999794,up,1,0.17109950000303797,None,0,Hirva,001,2023-11-27_23h17.06.690,Final_Project,2023.2.3,59.98685088342161,2023-11-27 23h17.20.401846 +0530,
45,72,0,144,1,308.3545784000016,,308.3429836000141,308.3545784000016,309.3538109000074,309.3538109000074,309.8535128000076,309.8535128000076,310.1530969000014,310.1530969000014,310.4371398999938,up,1,0.27245879999827594,None,0,Hirva,001,2023-11-27_23h17.06.690,Final_Project,2023.2.3,59.98685088342161,2023-11-27 23h17.20.401846 +0530,
0,72,1,145,0,310.45285550001427,,310.43908430001466,310.45285550001427,311.4521095000091,311.4521095000091,311.951707500004,311.951707500004,312.2513816000137,312.2513816000137,312.65419970001676,down,1,0.3970446999883279,None,3,Hirva,001,2023-11-27_23h17.06.690,Final_Project,2023.2.3,59.98685088342161,2023-11-27 23h17.20.401846 +0530,
0,73,0,146,0,312.667551999999,,312.6581889000081,312.667551999999,313.66677870001877,313.66677870001877,314.16633480001474,314.16633480001474,314.4660983000067,314.4660983000067,314.7031527000072,down,1,0.21925720002036542,None,4,Hirva,001,2023-11-27_23h17.06.690,Final_Project,2023.2.3,59.98685088342161,2023-11-27 23h17.20.401846 +0530,
45,73,1,147,1,314.71592119999696,,314.7072934000171,314.71592119999696,315.7150605999923,315.7150605999923,316.21455999999307,316.21455999999307,316.51433669999824,316.51433669999824,316.7987039000145,up,1,0.27233029998023994,None,0,Hirva,001,2023-11-27_23h17.06.690,Final_Project,2023.2.3,59.98685088342161,2023-11-27 23h17.20.401846 +0530,
45,74,0,148,1,316.8142405000108,,316.80009550001705,316.8142405000108,317.8133100999985,317.8133100999985,318.3129668000038,318.3129668000038,318.61267360000056,318.61267360000056,318.99748399999226,down,1,0.379654299991671,None,-2,Hirva,001,2023-11-27_23h17.06.690,Final_Project,2023.2.3,59.98685088342161,2023-11-27 23h17.20.401846 +0530,
0,74,1,149,0,319.01231320001534,,319.00016130000586,319.01231320001534,320.01202439999906,320.01202439999906,320.51117559999693,320.51117559999693,320.8109320999938,320.8109320999938,321.07843950000824,up,0,0.25582540000323206,None,3,Hirva,001,2023-11-27_23h17.06.690,Final_Project,2023.2.3,59.98685088342161,2023-11-27 23h17.20.401846 +0530,
0,75,0,150,0,321.0941471999977,,321.0801700000011,321.0941471999977,322.093675000011,322.093675000011,322.5930226999917,322.5930226999917,322.8925991000142,322.8925991000142,323.1603718000115,up,0,0.2540822000009939,None,1,Hirva,001,2023-11-27_23h17.06.690,Final_Project,2023.2.3,59.98685088342161,2023-11-27 23h17.20.401846 +0530,
45,75,1,151,1,323.1757380000199,,323.16184899999644,323.1757380000199,324.1750214000058,324.1750214000058,324.6744983000099,324.6744983000099,324.97430339999846,324.97430339999846,325.2417878000124,up,1,0.2514845999830868,None,0,Hirva,001,2023-11-27_23h17.06.690,Final_Project,2023.2.3,59.98685088342161,2023-11-27 23h17.20.401846 +0530,
0,76,0,152,0,325.2572748000093,,325.24384890001966,325.2572748000093,326.2563596999971,326.2563596999971,326.75607299999683,326.75607299999683,327.05574840001645,327.05574840001645,327.54000520001864,down,1,0.46779809999861754,None,2,Hirva,001,2023-11-27_23h17.06.690,Final_Project,2023.2.3,59.98685088342161,2023-11-27 23h17.20.401846 +0530,
45,76,1,153,1,327.5553418000054,,327.54208089999156,327.5553418000054,328.5545497999992,328.5545497999992,329.05411950001144,329.05411950001144,329.353783700004,329.353783700004,329.8878369000158,down,0,0.5217145000060555,None,0,Hirva,001,2023-11-27_23h17.06.690,Final_Project,2023.2.3,59.98685088342161,2023-11-27 23h17.20.401846 +0530,
45,77,0,154,1,329.90342149999924,,329.8896902000124,329.90342149999924,330.90247200001613,330.90247200001613,331.40230889999657,331.40230889999657,331.70195960000274,331.70195960000274,332.0361973000108,down,1,0.32513830001698807,None,-3,Hirva,001,2023-11-27_23h17.06.690,Final_Project,2023.2.3,59.98685088342161,2023-11-27 23h17.20.401846 +0530,
0,77,1,155,0,332.0515197000059,,332.0379360000079,332.0515197000059,333.05094210000243,333.05094210000243,333.55053090001456,333.55053090001456,333.8502101000049,333.8502101000049,334.05088670001714,up,1,0.19858470000326633,None,0,Hirva,001,2023-11-27_23h17.06.690,Final_Project,2023.2.3,59.98685088342161,2023-11-27 23h17.20.401846 +0530,
0,78,0,156,0,334.06672750000143,,334.0523441999976,334.06672750000143,335.0660812999995,335.0660812999995,335.5660381000198,335.5660381000198,335.86542180000106,335.86542180000106,336.1161978000018,down,1,0.24980190000496805,None,1,Hirva,001,2023-11-27_23h17.06.690,Final_Project,2023.2.3,59.98685088342161,2023-11-27 23h17.20.401846 +0530,
45,78,1,157,1,336.1317287000129,,336.11757030000445,336.1317287000129,337.13100210000994,337.13100210000994,337.63051099999575,337.63051099999575,337.9302471000119,337.9302471000119,338.1819417999941,up,1,0.24363400001311675,None,0,Hirva,001,2023-11-27_23h17.06.690,Final_Project,2023.2.3,59.98685088342161,2023-11-27 23h17.20.401846 +0530,
0,79,0,158,0,338.1965845999948,,338.18393820000347,338.1965845999948,339.1960118999996,339.1960118999996,339.695661500009,339.695661500009,339.9952956000052,339.9952956000052,340.19768959999783,up,1,0.1914450000040233,None,0,Hirva,001,2023-11-27_23h17.06.690,Final_Project,2023.2.3,59.98685088342161,2023-11-27 23h17.20.401846 +0530,
45,79,1,159,1,340.21169029999874,,340.20050910001737,340.21169029999874,341.21108770000865,341.21108770000865,341.7106388999964,341.7106388999964,342.01023459999124,342.01023459999124,342.24508359999163,up,0,0.2267273000034038,None,-3,Hirva,001,2023-11-27_23h17.06.690,Final_Project,2023.2.3,59.98685088342161,2023-11-27 23h17.20.401846 +0530,
0,80,0,160,0,342.2600476999942,,342.247358099994,342.2600476999942,343.2594747999974,343.2594747999974,343.7588301000069,343.7588301000069,344.0586742000014,344.0586742000014,344.42675630000303,up,1,0.3592091999889817,None,0,Hirva,001,2023-11-27_23h17.06.690,Final_Project,2023.2.3,59.98685088342161,2023-11-27 23h17.20.401846 +0530,
45,80,1,161,1,344.44146380000166,,344.428178800008,344.44146380000166,345.4406958000036,345.4406958000036,345.94026440000744,345.94026440000744,346.23998869999195,346.23998869999195,346.6917151999951,up,1,0.43431529999361373,None,0,Hirva,001,2023-11-27_23h17.06.690,Final_Project,2023.2.3,59.98685088342161,2023-11-27 23h17.20.401846 +0530,
45,81,0,162,1,346.70648320001783,,346.69420110000647,346.70648320001783,347.7056768000184,347.7222080999927,348.2053455999994,348.2053455999994,348.50491020001937,348.50491020001937,349.0719927000173,down,0,0.5528852999850642,None,0,Hirva,001,2023-11-27_23h17.06.690,Final_Project,2023.2.3,59.98685088342161,2023-11-27 23h17.20.401846 +0530,
0,81,1,163,0,349.0876707000134,,349.07350250001764,349.0876707000134,350.0866936999955,350.0866936999955,350.5863756000181,350.5863756000181,350.88613470000564,350.88613470000564,351.3870661999972,down,0,0.49830380000639707,None,0,Hirva,001,2023-11-27_23h17.06.690,Final_Project,2023.2.3,59.98685088342161,2023-11-27 23h17.20.401846 +0530,
0,82,0,164,0,351.4025737000047,,351.39259200001834,351.4025737000047,352.40188360001775,352.40188360001775,352.9014279000112,352.9014279000112,353.20109459999367,353.20109459999367,353.70156810001936,down,0,0.4924532999866642,None,0,Hirva,001,2023-11-27_23h17.06.690,Final_Project,2023.2.3,59.98685088342161,2023-11-27 23h17.20.401846 +0530,
45,82,1,165,1,353.71720840001944,,353.7030567000038,353.71720840001944,354.7165024999995,354.7165024999995,355.21627209999133,355.21627209999133,355.5159844000009,355.5159844000009,355.8502516000008,up,1,0.32854080002289265,None,0,Hirva,001,2023-11-27_23h17.06.690,Final_Project,2023.2.3,59.98685088342161,2023-11-27 23h17.20.401846 +0530,
45,83,0,166,1,355.8655060000019,,355.8557240999944,355.8655060000019,356.8648484000005,356.8648484000005,357.3642657000164,357.3642657000164,357.66413789999206,357.66413789999206,358.0478158000042,down,1,0.36702290002722293,None,2,Hirva,001,2023-11-27_23h17.06.690,Final_Project,2023.2.3,59.98685088342161,2023-11-27 23h17.20.401846 +0530,
0,83,1,167,0,358.0637589000107,,358.04951340000844,358.0637589000107,359.0629733999958,359.0629733999958,359.56254310000804,359.56254310000804,359.8622529999993,359.8622529999993,360.11297350001405,up,1,0.23446820001117885,None,0,Hirva,001,2023-11-27_23h17.06.690,Final_Project,2023.2.3,59.98685088342161,2023-11-27 23h17.20.401846 +0530,
45,84,0,168,1,360.12856000001193,,360.11442060000263,360.12856000001193,361.1276317000156,361.1276317000156,361.62731320000603,361.62731320000603,361.9269088000001,361.9269088000001,362.21310910000466,up,0,0.2842582000012044,None,1,Hirva,001,2023-11-27_23h17.06.690,Final_Project,2023.2.3,59.98685088342161,2023-11-27 23h17.20.401846 +0530,
0,84,1,169,0,362.22685470001306,,362.21552230001544,362.22685470001306,363.2260588000063,363.2260588000063,363.72554350001155,363.72554350001155,364.0253479999956,364.0253479999956,364.3599957000115,up,1,0.3256139000004623,None,0,Hirva,001,2023-11-27_23h17.06.690,Final_Project,2023.2.3,59.98685088342161,2023-11-27 23h17.20.401846 +0530,
0,85,0,170,0,364.375024900015,,364.3616442999919,364.375024900015,365.3742028000124,365.3742028000124,365.8738466000068,365.8738466000068,366.1737138000026,366.1737138000026,366.59210520001943,down,1,0.41675669999676757,None,3,Hirva,001,2023-11-27_23h17.06.690,Final_Project,2023.2.3,59.98685088342161,2023-11-27 23h17.20.401846 +0530,
45,85,1,171,1,366.60668930000975,,366.59589580001193,366.60668930000975,367.60597619999317,367.60597619999317,368.10563110001385,368.10563110001385,368.4052317000169,368.4052317000169,368.67518419999396,up,1,0.2676002000225708,None,0,Hirva,001,2023-11-27_23h17.06.690,Final_Project,2023.2.3,59.98685088342161,2023-11-27 23h17.20.401846 +0530,
45,86,0,172,1,368.6884420000133,,368.6785938999965,368.6884420000133,369.6876813000126,369.70417969999835,370.18717670001206,370.18717670001206,370.4870198999997,370.4870198999997,370.8546017000044,down,1,0.36229250000906177,None,-4,Hirva,001,2023-11-27_23h17.06.690,Final_Project,2023.2.3,59.98685088342161,2023-11-27 23h17.20.401846 +0530,
0,86,1,173,0,370.8697331000003,,370.85651879999205,370.8697331000003,371.869414899993,371.869414899993,372.36866259999806,372.36866259999806,372.6704597999924,372.6704597999924,372.936492000008,down,1,0.2542457999952603,None,4,Hirva,001,2023-11-27_23h17.06.690,Final_Project,2023.2.3,59.98685088342161,2023-11-27 23h17.20.401846 +0530,
45,87,0,174,1,372.95159810001496,,372.9390847000177,372.95159810001496,373.9507198999927,373.9507198999927,374.45031430001836,374.45031430001836,374.7499180000159,374.7499180000159,375.0172573000018,down,1,0.25637420002021827,None,-5,Hirva,001,2023-11-27_23h17.06.690,Final_Project,2023.2.3,59.98685088342161,2023-11-27 23h17.20.401846 +0530,
0,87,1,175,0,375.0331614000024,,375.0186476999952,375.0331614000024,376.03232669999124,376.03232669999124,376.53195460001007,376.53195460001007,376.8315694000048,376.8315694000048,377.19918960001087,up,1,0.35946000000694767,None,0,Hirva,001,2023-11-27_23h17.06.690,Final_Project,2023.2.3,59.98685088342161,2023-11-27 23h17.20.401846 +0530,
0,88,0,176,0,377.2146166000166,,377.2010510000109,377.2146166000166,378.2135591999977,378.2135591999977,378.7134373000008,378.7134373000008,379.01292530001956,379.01292530001956,379.463840100012,up,1,0.43719250001595356,None,0,Hirva,001,2023-11-27_23h17.06.690,Final_Project,2023.2.3,59.98685088342161,2023-11-27 23h17.20.401846 +0530,
45,88,1,177,1,379.47938400000567,,379.46620450000046,379.47938400000567,380.4786928000103,380.4786928000103,380.9784348999965,380.9784348999965,381.2778878000099,381.2778878000099,381.49553010001546,up,1,0.2056072999839671,None,0,Hirva,001,2023-11-27_23h17.06.690,Final_Project,2023.2.3,59.98685088342161,2023-11-27 23h17.20.401846 +0530,
45,89,0,178,1,381.5108698999975,,381.49876700001187,381.5108698999975,382.5101250000007,382.5101250000007,383.00984959999914,383.00984959999914,383.30944380001165,383.30944380001165,383.52704300000914,up,0,0.2024206000205595,None,2,Hirva,001,2023-11-27_23h17.06.690,Final_Project,2023.2.3,59.98685088342161,2023-11-27 23h17.20.401846 +0530,
0,89,1,179,0,383.5428031000192,,383.528999800008,383.5428031000192,384.541936900001,384.541936900001,385.041629400017,385.041629400017,385.3414250999922,385.3414250999922,385.6786614000157,down,0,0.33121720000053756,None,0,Hirva,001,2023-11-27_23h17.06.690,Final_Project,2023.2.3,59.98685088342161,2023-11-27 23h17.20.401846 +0530,
45,90,0,180,1,385.69096649999847,,385.68184510001447,385.69096649999847,386.6902102000022,386.6902102000022,387.1898717000149,387.1898717000149,387.4896185999969,387.4896185999969,387.7740541000094,up,1,0.27861860001576133,None,0,Hirva,001,2023-11-27_23h17.06.690,Final_Project,2023.2.3,59.98685088342161,2023-11-27 23h17.20.401846 +0530,
0,90,1,181,0,387.79019120000885,,387.7761140000075,387.79019120000885,388.7883994000149,388.80497560001095,389.28806449999684,389.28806449999684,389.5879178000032,389.5879178000032,389.8895800000173,down,1,0.299139099981403,None,3,Hirva,001,2023-11-27_23h17.06.690,Final_Project,2023.2.3,59.98685088342161,2023-11-27 23h17.20.401846 +0530,
45,91,0,182,1,389.90407160000177,,389.891549699998,389.90407160000177,390.9031253000139,390.9031253000139,391.4029080000182,391.4029080000182,391.70257839999977,391.70257839999977,392.0208375999937,up,1,0.3062185999879148,None,0,Hirva,001,2023-11-27_23h17.06.690,Final_Project,2023.2.3,59.98685088342161,2023-11-27 23h17.20.401846 +0530,
0,91,1,183,0,392.0358538000146,,392.02343610001844,392.0358538000146,393.0351598999987,393.0351598999987,393.53471110001556,393.53471110001556,393.83431959999143,393.83431959999143,394.20191560001695,down,1,0.35663779999595135,None,-3,Hirva,001,2023-11-27_23h17.06.690,Final_Project,2023.2.3,59.98685088342161,2023-11-27 23h17.20.401846 +0530,
45,92,0,184,1,394.21736909999163,,394.20322339999257,394.21736909999163,395.2165775000176,395.2331993000116,395.71613179999986,395.71613179999986,396.0158580999996,396.0158580999996,396.3829023000144,up,0,0.36020860000280663,None,4,Hirva,001,2023-11-27_23h17.06.690,Final_Project,2023.2.3,59.98685088342161,2023-11-27 23h17.20.401846 +0530,
0,92,1,185,0,396.39883560000453,,396.38391480001155,396.39883560000453,397.3978150000039,397.3978150000039,397.89753620000556,397.89753620000556,398.19730739999795,398.19730739999795,398.59818749999977,up,1,0.3991421000100672,None,0,Hirva,001,2023-11-27_23h17.06.690,Final_Project,2023.2.3,59.98685088342161,2023-11-27 23h17.20.401846 +0530,
0,93,0,186,0,398.6136722000083,,398.60108730001957,398.6136722000083,399.61290209999424,399.61290209999424,400.1125561000081,400.1125561000081,400.4131834,400.4131834,400.88077129999874,down,0,0.4557494000182487,None,0,Hirva,001,2023-11-27_23h17.06.690,Final_Project,2023.2.3,59.98685088342161,2023-11-27 23h17.20.401846 +0530,
45,93,1,187,1,400.89493650000077,,400.8829038999975,400.89493650000077,401.8942134999961,401.8942134999961,402.39380130000063,402.39380130000063,402.6935604000173,402.6935604000173,403.51096179999877,down,1,0.8119388000050094,None,-4,Hirva,001,2023-11-27_23h17.06.690,Final_Project,2023.2.3,59.98685088342161,2023-11-27 23h17.20.401846 +0530,
0,94,0,188,0,403.526328500011,,403.5133334000129,403.526328500011,404.5255484000081,404.5255484000081,405.0251448000199,405.0251448000199,405.3260025999916,405.3260025999916,405.76013830001466,down,1,0.4325415999919642,None,4,Hirva,001,2023-11-27_23h17.06.690,Final_Project,2023.2.3,59.98685088342161,2023-11-27 23h17.20.401846 +0530,
45,94,1,189,1,405.7745072999969,,405.76300090001314,405.7745072999969,406.773683300009,406.773683300009,407.27344849999645,407.27344849999645,407.573063000018,407.573063000018,407.9235921000072,up,1,0.34533129999181256,None,0,Hirva,001,2023-11-27_23h17.06.690,Final_Project,2023.2.3,59.98685088342161,2023-11-27 23h17.20.401846 +0530,
0,95,0,190,0,407.9392410000146,,407.9252998000011,407.9392410000146,408.938400700019,408.938400700019,409.43805230001453,409.43805230001453,409.73770490000607,409.73770490000607,409.9720401999948,up,1,0.2204210000054445,None,0,Hirva,001,2023-11-27_23h17.06.690,Final_Project,2023.2.3,59.98685088342161,2023-11-27 23h17.20.401846 +0530,
45,95,1,191,1,409.98745580000104,,409.97325280000223,409.98745580000104,410.9866674999939,410.9866674999939,411.4863035000162,411.4863035000162,411.7860772999993,411.7860772999993,412.30315930000506,down,1,0.5106423000106588,None,2,Hirva,001,2023-11-27_23h17.06.690,Final_Project,2023.2.3,59.98685088342161,2023-11-27 23h17.20.401846 +0530,
45,96,0,192,1,412.31917679999606,,412.30451350001385,412.31917679999606,413.3183804000146,413.3183804000146,413.81797120001283,413.81797120001283,414.12133809999796,414.12133809999796,414.58474700001534,down,1,0.4513662000244949,None,-4,Hirva,001,2023-11-27_23h17.06.690,Final_Project,2023.2.3,59.98685088342161,2023-11-27 23h17.20.401846 +0530,
0,96,1,193,0,414.60053580001113,,414.58908560001873,414.60053580001113,415.59977530001197,415.59977530001197,416.0993798999989,416.0993798999989,416.39910490001785,416.39910490001785,416.68302359999507,down,1,0.2713176000106614,None,-5,Hirva,001,2023-11-27_23h17.06.690,Final_Project,2023.2.3,59.98685088342161,2023-11-27 23h17.20.401846 +0530,
0,97,0,194,0,416.6991146999935,,416.684699800011,416.6991146999935,417.6980218999961,417.7148181000084,418.1976198000193,418.1976198000193,418.49742170001264,418.49742170001264,419.2487495999958,down,1,0.7426062000158709,None,2,Hirva,001,2023-11-27_23h17.06.690,Final_Project,2023.2.3,59.98685088342161,2023-11-27 23h17.20.401846 +0530,
45,97,1,195,1,419.2635140999919,,419.25187360000564,419.2635140999919,420.26266500001657,420.26266500001657,420.7622532999958,420.7622532999958,421.0618977000122,421.0618977000122,421.7321574999951,down,0,0.6641014999768231,None,0,Hirva,001,2023-11-27_23h17.06.690,Final_Project,2023.2.3,59.98685088342161,2023-11-27 23h17.20.401846 +0530,
0,98,0,196,0,421.7446878000046,,421.7362321999972,421.7446878000046,422.7437590000045,422.7437590000045,423.2435089999926,423.2435089999926,423.5432885000191,423.5432885000191,423.7103822999925,up,1,0.15858109999680892,None,0,Hirva,001,2023-11-27_23h17.06.690,Final_Project,2023.2.3,59.98685088342161,2023-11-27 23h17.20.401846 +0530,
45,98,1,197,1,423.7263009000162,,423.7120252000168,423.7263009000162,424.72535439999774,424.72535439999774,425.2250122000114,425.2250122000114,425.52487049999763,425.52487049999763,425.90984229999594,down,1,0.36814940001931973,None,-3,Hirva,001,2023-11-27_23h17.06.690,Final_Project,2023.2.3,59.98685088342161,2023-11-27 23h17.20.401846 +0530,
0,99,0,198,0,425.92448330001207,,425.91203599999426,425.92448330001207,426.9236108000041,426.9236108000041,427.42331750001176,427.42331750001176,427.7229662000027,427.7229662000027,427.9580152000126,up,1,0.22635429998626933,None,0,Hirva,001,2023-11-27_23h17.06.690,Final_Project,2023.2.3,59.98685088342161,2023-11-27 23h17.20.401846 +0530,
45,99,1,199,1,427.97278000001097,,427.9610777999915,427.97278000001097,428.9730910999933,428.9730910999933,429.4884168000135,429.4715819999983,429.7713159999985,429.7713159999985,429.98949040001025,down,1,0.21573940000962466,None,-5,Hirva,001,2023-11-27_23h17.06.690,Final_Project,2023.2.3,59.98685088342161,2023-11-27 23h17.20.401846 +0530,
