orient,trials.thisRepN,trials.thisTrialN,trials.thisN,trials.thisIndex,polygon.started,polygon_2.started,polygon.stopped,polygon_2.stopped,grating.started,key_resp.started,grating.stopped,key_resp.keys,key_resp.corr,key_resp.rt,key_resp.duration,tilt,participant,session,date,expName,psychopyVersion,frameRate,
0,0,0,0,0,13.499569899984635,14.494651999964844,14.51101670000935,15.024340800009668,15.024340800009668,15.29442970000673,15.327703899994958,up,1,0.8318642000085674,None,0,maniii,001,2023-11-28_13h18.14.200,Final_Project,2023.1.3,60.09972950189635,
45,0,1,1,1,16.147339899966028,17.160720199986827,17.166529899986926,17.66104009997798,17.644506699987687,17.94433349999599,17.94433349999599,up,1,0.9251992999925278,None,0,maniii,001,2023-11-28_13h18.14.200,Final_Project,2023.1.3,60.09972950189635,
45,1,0,2,1,18.894399099983275,19.894440400006715,19.894440400006715,20.394124799990095,20.394124799990095,20.694399699976202,20.694399699976202,down,1,0.3762320000096224,None,-2,maniii,001,2023-11-28_13h18.14.200,Final_Project,2023.1.3,60.09972950189635,
0,1,1,3,0,21.09449579997454,22.09406889998354,22.09406889998354,22.594514500000514,22.594514500000514,22.894371500005946,22.894371500005946,up,1,0.6839587999857031,None,0,maniii,001,2023-11-28_13h18.14.200,Final_Project,2023.1.3,60.09972950189635,
0,2,0,4,0,23.611275899980683,24.61116430000402,24.61116430000402,25.111250999965705,25.111250999965705,25.41091779997805,25.41091779997805,down,1,1.134429799974896,None,-3,maniii,001,2023-11-28_13h18.14.200,Final_Project,2023.1.3,60.09972950189635,
45,2,1,5,1,26.577668399957474,27.577576000010595,27.577576000010595,28.077795099990908,28.077795099990908,28.377092199982144,28.377092199982144,down,1,0.7243016999564134,None,4,maniii,001,2023-11-28_13h18.14.200,Final_Project,2023.1.3,60.09972950189635,
0,3,0,6,0,29.12763050000649,30.127565299975686,30.127565299975686,30.627649499976542,30.627649499976542,30.92740479996428,30.92740479996428,up,1,2.7920122999930754,None,0,maniii,001,2023-11-28_13h18.14.200,Final_Project,2023.1.3,60.09972950189635,
45,3,1,7,1,33.744185199961066,34.74424899998121,34.74424899998121,35.24457619996974,35.24457619996974,35.5441148999962,35.5441148999962,down,1,0.3853609999641776,None,3,maniii,001,2023-11-28_13h18.14.200,Final_Project,2023.1.3,60.09972950189635,
0,4,0,8,0,35.961121700005606,36.961024199961685,36.961024199961685,37.46136459999252,37.46136459999252,37.76110169995809,37.76110169995809,up,1,0.40583619999233633,None,0,maniii,001,2023-11-28_13h18.14.200,Final_Project,2023.1.3,60.09972950189635,
45,4,1,9,1,38.194402599998284,39.19449909997638,39.19449909997638,39.694839200004935,39.694839200004935,39.99434769997606,39.99434769997606,down,1,0.8819866999983788,None,3,maniii,001,2023-11-28_13h18.14.200,Final_Project,2023.1.3,60.09972950189635,
0,5,0,10,0,40.89437319996068,41.89400769997155,41.89400769997155,42.39453960000537,42.39453960000537,42.694333799998276,42.694333799998276,down,1,0.7812123000039719,None,4,maniii,001,2023-11-28_13h18.14.200,Final_Project,2023.1.3,60.09972950189635,
45,5,1,11,1,43.49430189997656,44.49444239999866,44.49444239999866,44.99453949998133,44.99453949998133,45.29453620000277,45.29453620000277,up,1,0.5624920000554994,None,0,maniii,001,2023-11-28_13h18.14.200,Final_Project,2023.1.3,60.09972950189635,
45,6,0,12,1,45.87770489999093,46.87764929997502,46.87764929997502,47.377353099989705,47.377353099989705,47.67753990000347,47.67753990000347,down,0,0.5898095000302419,None,0,maniii,001,2023-11-28_13h18.14.200,Final_Project,2023.1.3,60.09972950189635,
0,6,1,13,0,48.294404199987184,49.294413800002076,49.294413800002076,49.79462840000633,49.79462840000633,50.094302999961656,50.094302999961656,down,1,1.0684141000383534,None,-4,maniii,001,2023-11-28_13h18.14.200,Final_Project,2023.1.3,60.09972950189635,
45,7,0,14,1,51.19456019997597,52.1945032000076,52.1945032000076,52.69450300000608,52.69450300000608,52.994365699996706,52.994365699996706,up,0,0.7469177999882959,None,-2,maniii,001,2023-11-28_13h18.14.200,Final_Project,2023.1.3,60.09972950189635,
0,7,1,15,0,53.760983999993186,54.76113299996359,54.76113299996359,55.261027799977455,55.261027799977455,55.56144689995563,55.56144689995563,down,1,0.7210814999998547,None,2,maniii,001,2023-11-28_13h18.14.200,Final_Project,2023.1.3,60.09972950189635,
45,8,0,16,1,56.31149120000191,57.3111685999902,57.3111685999902,57.81117830000585,57.81117830000585,58.11118919996079,58.11118919996079,down,0,1.5650637000217102,None,0,maniii,001,2023-11-28_13h18.14.200,Final_Project,2023.1.3,60.09972950189635,
0,8,1,17,0,59.69458809995558,60.69441239995649,60.69441239995649,61.1942824999569,61.1942824999569,61.49429949995829,61.49429949995829,down,1,1.6600536000332795,None,-3,maniii,001,2023-11-28_13h18.14.200,Final_Project,2023.1.3,60.09972950189635,
0,9,0,18,0,63.17765139997937,64.17754669999704,64.17754669999704,64.67794639995554,64.67794639995554,64.97773699997924,64.97773699997924,up,1,0.23963309999089688,None,0,maniii,001,2023-11-28_13h18.14.200,Final_Project,2023.1.3,60.09972950189635,
45,9,1,19,1,65.24435319995973,66.24448009999469,66.24448009999469,66.74443009996321,66.74443009996321,67.04440969997086,67.04440969997086,down,0,5.581161200010683,None,0,maniii,001,2023-11-28_13h18.14.200,Final_Project,2023.1.3,60.09972950189635,
45,10,0,20,1,72.64443619997473,73.64432459999807,73.64432459999807,74.14454169996316,74.14454169996316,74.44472460000543,74.44472460000543,down,0,0.21213270002044737,None,0,maniii,001,2023-11-28_13h18.14.200,Final_Project,2023.1.3,60.09972950189635,
0,10,1,21,0,74.67763829999603,75.67777730000671,75.67777730000671,76.17783930001315,76.17783930001315,76.47779440000886,76.47779440000886,up,0,0.025976600009016693,None,4,maniii,001,2023-11-28_13h18.14.200,Final_Project,2023.1.3,60.09972950189635,
0,11,0,22,0,76.5279343999573,77.52793459995883,77.52793459995883,78.02787980000721,78.02787980000721,78.3277514000074,78.3277514000074,down,0,0.5868679000413977,None,0,maniii,001,2023-11-28_13h18.14.200,Final_Project,2023.1.3,60.09972950189635,
45,11,1,23,1,78.94445770001039,79.94450240000151,79.94450240000151,80.4448379999958,80.4448379999958,80.7445982999634,80.7445982999634,down,1,0.8671493000001647,None,-3,maniii,001,2023-11-28_13h18.14.200,Final_Project,2023.1.3,60.09972950189635,
45,12,0,24,1,81.62773509998806,82.62757989997044,82.62757989997044,83.12801310000941,83.12801310000941,83.42766699998174,83.42766699998174,up,1,0.7077388999750838,None,0,maniii,001,2023-11-28_13h18.14.200,Final_Project,2023.1.3,60.09972950189635,
0,12,1,25,0,84.16137729998445,85.16116819996387,85.16116819996387,85.66135059995577,85.66135059995577,85.96113109996077,85.96113109996077,up,1,0.4714220000314526,None,0,maniii,001,2023-11-28_13h18.14.200,Final_Project,2023.1.3,60.09972950189635,
45,13,0,26,1,86.46137480001198,87.46116579999216,87.46116579999216,87.96126849995926,87.96126849995926,88.26132409996353,88.26132409996353,down,0,1.1360543000046164,None,0,maniii,001,2023-11-28_13h18.14.200,Final_Project,2023.1.3,60.09972950189635,
0,13,1,27,0,89.42976530001033,90.42782509996323,90.4443820999586,90.92789389996324,90.92789389996324,91.22738999995636,91.22738999995636,down,1,0.7516465000226162,None,-4,maniii,001,2023-11-28_13h18.14.200,Final_Project,2023.1.3,60.09972950189635,
45,14,0,28,1,92.01099969999632,93.01122849999228,93.01122849999228,93.51126539998222,93.51126539998222,93.81111919996329,93.81111919996329,up,1,0.47523620002903044,None,0,maniii,001,2023-11-28_13h18.14.200,Final_Project,2023.1.3,60.09972950189635,
0,14,1,29,0,94.31124119996093,95.31123910000315,95.31123910000315,95.8112562999595,95.8112562999595,96.11098999995738,96.11098999995738,up,0,0.5644681999692693,None,1,maniii,001,2023-11-28_13h18.14.200,Final_Project,2023.1.3,60.09972950189635,
0,15,0,30,0,96.69443519995548,97.69468499999493,97.69468499999493,98.19443159998627,98.19443159998627,98.49457479995908,98.49457479995908,up,0,0.411027499998454,None,2,maniii,001,2023-11-28_13h18.14.200,Final_Project,2023.1.3,60.09972950189635,
45,15,1,31,1,98.92781369999284,99.9279222000041,99.9279222000041,100.42778490000637,100.42778490000637,100.72774910001317,100.72774910001317,up,1,0.7349271000130102,None,0,maniii,001,2023-11-28_13h18.14.200,Final_Project,2023.1.3,60.09972950189635,
45,16,0,32,1,101.49439790000906,102.49479359999532,102.49479359999532,102.99473499995656,102.99473499995656,103.29443889996037,103.29443889996037,down,1,0.3506018000189215,None,-4,maniii,001,2023-11-28_13h18.14.200,Final_Project,2023.1.3,60.09972950189635,
0,16,1,33,0,103.66144359996542,104.66140869999072,104.66140869999072,105.16140380001161,105.16140380001161,105.46384949999629,105.46384949999629,up,1,0.4880111999809742,None,0,maniii,001,2023-11-28_13h18.14.200,Final_Project,2023.1.3,60.09972950189635,
45,17,0,34,1,105.97775079996791,106.97788159997435,106.97788159997435,107.477810100012,107.477810100012,107.7775488999905,107.7775488999905,down,1,2.5983358999947086,None,-3,maniii,001,2023-11-28_13h18.14.200,Final_Project,2023.1.3,60.09972950189635,
0,17,1,35,0,110.39448199997423,111.39462789997924,111.39462789997924,111.89485529996455,111.89485529996455,112.19432849995792,112.19432849995792,down,1,0.27877899998566136,None,-4,maniii,001,2023-11-28_13h18.14.200,Final_Project,2023.1.3,60.09972950189635,
0,18,0,36,0,112.49453399999766,113.47778660000768,113.49441809998825,113.97753259999445,113.9947004999849,114.29456650000066,114.29456650000066,up,1,0.4074463999713771,None,0,maniii,001,2023-11-28_13h18.14.200,Final_Project,2023.1.3,60.09972950189635,
45,18,1,37,1,114.7278004999971,115.72784219996538,115.72784219996538,116.2279533999972,116.2279533999972,116.52794110000832,116.52794110000832,up,1,0.6454198000137694,None,0,maniii,001,2023-11-28_13h18.14.200,Final_Project,2023.1.3,60.09972950189635,
0,19,0,38,0,117.19447119999677,118.19455349998316,118.19455349998316,118.69463270000415,118.69463270000415,118.99439760000678,118.99439760000678,down,1,1.255989600031171,None,-3,maniii,001,2023-11-28_13h18.14.200,Final_Project,2023.1.3,60.09972950189635,
45,19,1,39,1,120.27784769999562,121.2777020999929,121.2777020999929,121.77790200000163,121.77790200000163,122.07740219996776,122.07740219996776,down,0,0.45236320002004504,None,0,maniii,001,2023-11-28_13h18.14.200,Final_Project,2023.1.3,60.09972950189635,
0,20,0,40,0,122.56139059999259,123.56118349998724,123.56118349998724,124.06136980000883,124.06136980000883,124.36124469997594,124.36124469997594,down,0,0.3518939000205137,None,0,maniii,001,2023-11-28_13h18.14.200,Final_Project,2023.1.3,60.09972950189635,
45,20,1,41,1,124.74453789996915,125.74464970000554,125.74464970000554,126.24456999998074,126.24456999998074,126.54441909998422,126.54441909998422,up,1,0.6993588999612257,None,0,maniii,001,2023-11-28_13h18.14.200,Final_Project,2023.1.3,60.09972950189635,
45,21,0,42,1,127.26122489996487,128.26116860000184,128.26116860000184,128.76109379995614,128.76109379995614,129.06112929998199,129.06112929998199,down,0,0.31488449999596924,None,0,maniii,001,2023-11-28_13h18.14.200,Final_Project,2023.1.3,60.09972950189635,
0,21,1,43,0,129.39435799996136,130.39519989996916,130.39519989996916,130.91120649996446,130.89513479999732,131.19451319996733,131.19451319996733,up,1,1.2977941000135615,None,0,maniii,001,2023-11-28_13h18.14.200,Final_Project,2023.1.3,60.09972950189635,
0,22,0,44,0,132.51140239997767,133.51101439999184,133.51101439999184,134.0113749000011,134.0113749000011,134.31127279996872,134.31127279996872,down,0,0.6656361999921501,None,0,maniii,001,2023-11-28_13h18.14.200,Final_Project,2023.1.3,60.09972950189635,
45,22,1,45,1,134.99487829999998,135.99461339996196,135.99461339996196,136.494607599976,136.494607599976,136.79440349998185,136.79440349998185,down,1,0.6293554999865592,None,-4,maniii,001,2023-11-28_13h18.14.200,Final_Project,2023.1.3,60.09972950189635,
0,23,0,46,0,137.4445429999614,138.4444894999615,138.4444894999615,138.94459689996438,138.94459689996438,139.24448930000653,139.24448930000653,up,1,1.6746918999706395,None,0,maniii,001,2023-11-28_13h18.14.200,Final_Project,2023.1.3,60.09972950189635,
45,23,1,47,1,140.94460119999712,141.94471700000577,141.94471700000577,142.4447512999759,142.4447512999759,142.74451539997244,142.74451539997244,up,1,0.8809267999604344,None,0,maniii,001,2023-11-28_13h18.14.200,Final_Project,2023.1.3,60.09972950189635,
0,24,0,48,0,143.64470870001242,144.64455819997238,144.64455819997238,145.14474169997266,145.14474169997266,145.4446063999785,145.4446063999785,down,0,0.44613830000162125,None,0,maniii,001,2023-11-28_13h18.14.200,Final_Project,2023.1.3,60.09972950189635,
45,24,1,49,1,145.91134469996905,146.91127579996828,146.91127579996828,147.41126259998418,147.41126259998418,147.71101989998715,147.71101989998715,down,0,2.190128599992022,None,0,maniii,001,2023-11-28_13h18.14.200,Final_Project,2023.1.3,60.09972950189635,
45,25,0,50,1,149.9280301000108,150.92792190000182,150.92792190000182,151.42804659996182,151.42804659996182,151.72791779995896,151.72791779995896,up,1,0.6508518999908119,None,0,maniii,001,2023-11-28_13h18.14.200,Final_Project,2023.1.3,60.09972950189635,
0,25,1,51,0,152.41137260000687,153.41109030001098,153.41109030001098,153.9113728000084,153.9113728000084,154.21107939997455,154.21107939997455,up,1,0.2631427000160329,None,0,maniii,001,2023-11-28_13h18.14.200,Final_Project,2023.1.3,60.09972950189635,
45,26,0,52,1,154.4946259999997,155.4945499000023,155.4945499000023,155.99462049995782,155.99462049995782,156.29450439999346,156.29450439999346,down,1,0.30887139996048063,None,4,maniii,001,2023-11-28_13h18.14.200,Final_Project,2023.1.3,60.09972950189635,
0,26,1,53,0,156.62799299997278,157.62761679996038,157.62761679996038,158.12766679999186,158.12766679999186,158.42790780001087,158.42790780001087,down,1,0.48131820000708103,None,4,maniii,001,2023-11-28_13h18.14.200,Final_Project,2023.1.3,60.09972950189635,
0,27,0,54,0,158.92782219999935,159.9277701000101,159.9277701000101,160.42798879998736,160.42798879998736,160.72795299999416,160.72795299999416,down,0,0.4809395999764092,None,0,maniii,001,2023-11-28_13h18.14.200,Final_Project,2023.1.3,60.09972950189635,
45,27,1,55,1,161.2276872000075,162.22807750001084,162.22807750001084,162.7279194999719,162.7279194999719,163.0277532999753,163.0277532999753,up,0,0.7304433999815956,None,1,maniii,001,2023-11-28_13h18.14.200,Final_Project,2023.1.3,60.09972950189635,
45,28,0,56,1,163.77806159999454,164.77793189999647,164.77793189999647,165.27785529999528,165.27785529999528,165.57768940000096,165.57768940000096,down,0,1.8401766999741085,None,0,maniii,001,2023-11-28_13h18.14.200,Final_Project,2023.1.3,60.09972950189635,
0,28,1,57,0,167.44462409999687,168.4445965999621,168.4445965999621,168.94474469998386,168.94474469998386,169.2443247999763,169.2443247999763,up,1,0.564525900001172,None,0,maniii,001,2023-11-28_13h18.14.200,Final_Project,2023.1.3,60.09972950189635,
45,29,0,58,1,169.82806579995668,170.82793189998483,170.82793189998483,171.3279110000003,171.3279110000003,171.62787540000863,171.62787540000863,down,0,0.654816199967172,None,0,maniii,001,2023-11-28_13h18.14.200,Final_Project,2023.1.3,60.09972950189635,
0,29,1,59,0,172.3113108999678,173.3113854000112,173.3113854000112,173.81157119997079,173.81157119997079,174.11135779996403,174.11135779996403,down,0,0.4308751000207849,None,0,maniii,001,2023-11-28_13h18.14.200,Final_Project,2023.1.3,60.09972950189635,
45,30,0,60,1,174.56128550000722,175.56119440001203,175.56119440001203,176.06153499998618,176.06153499998618,176.36120330000995,176.36120330000995,up,1,0.4609199000406079,None,0,maniii,001,2023-11-28_13h18.14.200,Final_Project,2023.1.3,60.09972950189635,
0,30,1,61,0,176.8446865999722,177.84475529997144,177.84475529997144,178.3448792999843,178.3448792999843,178.64458989998093,178.64458989998093,up,0,0.31577599997399375,None,1,maniii,001,2023-11-28_13h18.14.200,Final_Project,2023.1.3,60.09972950189635,
45,31,0,62,1,178.97809869999764,179.97763330000453,179.97763330000453,180.47783109999727,180.47783109999727,180.77790579997236,180.77790579997236,down,0,0.15189649997046217,None,0,maniii,001,2023-11-28_13h18.14.200,Final_Project,2023.1.3,60.09972950189635,
0,31,1,63,0,180.96144479996292,181.96142010000767,181.96142010000767,182.4615992999752,182.4615992999752,182.76136709999992,182.76136709999992,up,1,0.30273299996042624,None,0,maniii,001,2023-11-28_13h18.14.200,Final_Project,2023.1.3,60.09972950189635,
0,32,0,64,0,183.0946552999667,184.09463840001263,184.09463840001263,184.59501659998205,184.59501659998205,184.89460080000572,184.89460080000572,down,1,0.3983674999908544,None,-2,maniii,001,2023-11-28_13h18.14.200,Final_Project,2023.1.3,60.09972950189635,
45,32,1,65,1,185.3120273000095,186.31135089998133,186.31135089998133,186.8115439999965,186.8115439999965,187.11134629999287,187.11134629999287,down,0,0.48901580000529066,None,0,maniii,001,2023-11-28_13h18.14.200,Final_Project,2023.1.3,60.09972950189635,
45,33,0,66,1,187.62797849997878,188.6279173999792,188.6279173999792,189.12784869997995,189.12784869997995,189.42778540001018,189.42778540001018,down,0,0.17837559996405616,None,0,maniii,001,2023-11-28_13h18.14.200,Final_Project,2023.1.3,60.09972950189635,
0,33,1,67,0,189.6279020999791,190.6282734000124,190.6282734000124,191.1280298999627,191.1280298999627,191.42751919996226,191.42751919996226,up,0,0.24129789997823536,None,-4,maniii,001,2023-11-28_13h18.14.200,Final_Project,2023.1.3,60.09972950189635,
0,34,0,68,0,191.69464609998977,192.69469769997522,192.69469769997522,193.19470509997336,193.19470509997336,193.4946836999734,193.4946836999734,up,0,0.3157164999865927,None,2,maniii,001,2023-11-28_13h18.14.200,Final_Project,2023.1.3,60.09972950189635,
45,34,1,69,1,193.82804940000642,194.82806520001031,194.82806520001031,195.32819929998368,195.32819929998368,195.62802259996533,195.62802259996533,down,0,0.2292800000286661,None,0,maniii,001,2023-11-28_13h18.14.200,Final_Project,2023.1.3,60.09972950189635,
0,35,0,70,0,195.8780800999957,196.87776880001184,196.87776880001184,197.37814699998125,197.37814699998125,197.67786639998667,197.67786639998667,up,1,0.6204686000128277,None,0,maniii,001,2023-11-28_13h18.14.200,Final_Project,2023.1.3,60.09972950189635,
45,35,1,71,1,198.3278540999745,199.32787859998643,199.32787859998643,199.82816929998808,199.82816929998808,200.12733409996144,200.12733409996144,down,0,0.8253965000039898,None,0,maniii,001,2023-11-28_13h18.14.200,Final_Project,2023.1.3,60.09972950189635,
45,36,0,72,1,200.97792639996624,201.9779855000088,201.9779855000088,202.47777120000683,202.47777120000683,202.77797230001306,202.77797230001306,up,0,0.48624019999988377,None,-3,maniii,001,2023-11-28_13h18.14.200,Final_Project,2023.1.3,60.09972950189635,
0,36,1,73,0,203.29460089997156,204.2947056000121,204.2947056000121,204.79495259997202,204.79495259997202,205.0945972999907,205.0945972999907,down,1,0.3577788000111468,None,4,maniii,001,2023-11-28_13h18.14.200,Final_Project,2023.1.3,60.09972950189635,
0,37,0,74,0,205.4777981999796,206.47779239999363,206.47779239999363,206.9781163999578,206.9781163999578,207.27777669997886,207.27777669997886,down,1,0.3480946999625303,None,-5,maniii,001,2023-11-28_13h18.14.200,Final_Project,2023.1.3,60.09972950189635,
45,37,1,75,1,207.6447120999801,208.64469119999558,208.64469119999558,209.14486249996116,209.14486249996116,209.44462229998317,209.44462229998317,down,1,0.21947839995846152,None,-2,maniii,001,2023-11-28_13h18.14.200,Final_Project,2023.1.3,60.09972950189635,
0,38,0,76,0,209.6949574999744,210.69464179995703,210.69464179995703,211.1945354999625,211.1945354999625,211.49472259997856,211.49472259997856,up,1,0.7805775000015274,None,0,maniii,001,2023-11-28_13h18.14.200,Final_Project,2023.1.3,60.09972950189635,
45,38,1,77,1,212.29477420001058,213.29485060001025,213.29485060001025,213.79490469995653,213.79490469995653,214.09475649998058,214.09475649998058,up,0,0.2515177000313997,None,-4,maniii,001,2023-11-28_13h18.14.200,Final_Project,2023.1.3,60.09972950189635,
0,39,0,78,0,214.36130970000522,215.36149529996328,215.36149529996328,215.86146839999128,215.86146839999128,216.16132069996092,216.16132069996092,up,1,0.8215558000374585,None,0,maniii,001,2023-11-28_13h18.14.200,Final_Project,2023.1.3,60.09972950189635,
45,39,1,79,1,217.01137469999958,218.01109009998618,218.01109009998618,218.5114322999725,218.5114322999725,218.81132649997016,218.81132649997016,up,0,0.3126087000127882,None,-2,maniii,001,2023-11-28_13h18.14.200,Final_Project,2023.1.3,60.09972950189635,
45,40,0,80,1,219.1446389000048,220.14474239997799,220.14474239997799,220.64480869995896,220.64480869995896,220.9445973999682,220.9445973999682,down,1,0.45482510002329946,None,1,maniii,001,2023-11-28_13h18.14.200,Final_Project,2023.1.3,60.09972950189635,
0,40,1,81,0,221.42809559998568,222.4280041999882,222.4280041999882,222.92808220000006,222.92808220000006,223.22802459995728,223.22802459995728,up,1,0.30136089998995885,None,0,maniii,001,2023-11-28_13h18.14.200,Final_Project,2023.1.3,60.09972950189635,
0,41,0,82,0,223.56137849995866,224.56149349996122,224.56149349996122,225.06164939998416,225.06164939998416,225.36136749997968,225.36136749997968,up,1,0.4566777999862097,None,0,maniii,001,2023-11-28_13h18.14.200,Final_Project,2023.1.3,60.09972950189635,
45,41,1,83,1,225.84429869998712,226.84471179998945,226.84471179998945,227.34508229995845,227.34508229995845,227.64470129995607,227.64470129995607,up,1,0.2781865000142716,None,0,maniii,001,2023-11-28_13h18.14.200,Final_Project,2023.1.3,60.09972950189635,
45,42,0,84,1,227.9445823999704,228.94477649999317,228.94477649999317,229.4447890999727,229.4447890999727,229.7446895999601,229.7446895999601,up,0,2.522078900015913,None,2,maniii,001,2023-11-28_13h18.14.200,Final_Project,2023.1.3,60.09972950189635,
0,42,1,85,0,232.29472249996616,233.2947445999598,233.2947445999598,233.7951127999695,233.7951127999695,234.0947293000063,234.0947293000063,up,0,0.3850790000287816,None,1,maniii,001,2023-11-28_13h18.14.200,Final_Project,2023.1.3,60.09972950189635,
45,43,0,86,1,234.51155609998386,235.51139439997496,235.51139439997496,236.01166719995672,236.01166719995672,236.31158270000014,236.31158270000014,down,1,0.24873039999511093,None,3,maniii,001,2023-11-28_13h18.14.200,Final_Project,2023.1.3,60.09972950189635,
0,43,1,87,0,236.5779821999604,237.57782840001164,237.57782840001164,238.07809789996827,238.07809789996827,238.37791589996777,238.37791589996777,down,0,0.26870930002769455,None,0,maniii,001,2023-11-28_13h18.14.200,Final_Project,2023.1.3,60.09972950189635,
0,44,0,88,0,238.67783780000173,239.67813139996724,239.67813139996724,240.1781834999565,240.1781834999565,240.47805189999053,240.47805189999053,down,0,0.32072779996087775,None,0,maniii,001,2023-11-28_13h18.14.200,Final_Project,2023.1.3,60.09972950189635,
45,44,1,89,1,240.82825139997294,241.82823499996448,241.82823499996448,242.32832999998936,242.32832999998936,242.62788829999045,242.62788829999045,down,1,0.2842572999652475,None,4,maniii,001,2023-11-28_13h18.14.200,Final_Project,2023.1.3,60.09972950189635,
0,45,0,90,0,242.92821759998333,243.9279389999574,243.9279389999574,244.42812589998357,244.42812589998357,244.7280305000022,244.7280305000022,up,1,0.2906401999644004,None,0,maniii,001,2023-11-28_13h18.14.200,Final_Project,2023.1.3,60.09972950189635,
45,45,1,91,1,245.04510719998507,246.04474519996438,246.04474519996438,246.5448206999572,246.5448206999572,246.84453269996447,246.84453269996447,up,1,0.4046416999772191,None,0,maniii,001,2023-11-28_13h18.14.200,Final_Project,2023.1.3,60.09972950189635,
0,46,0,92,0,247.27803889999632,248.27816119999625,248.27816119999625,248.77796099998523,248.77796099998523,249.07785080000758,249.07785080000758,down,1,0.5759964999742806,None,-3,maniii,001,2023-11-28_13h18.14.200,Final_Project,2023.1.3,60.09972950189635,
45,46,1,93,1,249.67815900000278,250.67803959996672,250.67803959996672,251.17829109996092,251.17829109996092,251.4778704000055,251.4778704000055,down,1,0.44783570000436157,None,-3,maniii,001,2023-11-28_13h18.14.200,Final_Project,2023.1.3,60.09972950189635,
45,47,0,94,1,251.94483160000527,252.94473149999976,252.94473149999976,253.44481849996373,253.44481849996373,253.74483809998492,253.74483809998492,down,1,0.5299777000327595,None,-4,maniii,001,2023-11-28_13h18.14.200,Final_Project,2023.1.3,60.09972950189635,
0,47,1,95,0,254.29474270000355,255.29481489997124,255.29481489997124,255.7945364000043,255.7945364000043,256.0946164999623,256.0946164999623,down,0,0.3738929000101052,None,0,maniii,001,2023-11-28_13h18.14.200,Final_Project,2023.1.3,60.09972950189635,
45,48,0,96,1,256.49477619997924,257.4948499999591,257.4948499999591,257.9947601999738,257.9947601999738,258.29478769999696,258.29478769999696,up,1,0.4384764999849722,None,0,maniii,001,2023-11-28_13h18.14.200,Final_Project,2023.1.3,60.09972950189635,
0,48,1,97,0,258.7616232999717,259.7616046000039,259.7616046000039,260.2616973000113,260.2616973000113,260.5613188999705,260.5613188999705,down,1,0.7644364000298083,None,4,maniii,001,2023-11-28_13h18.14.200,Final_Project,2023.1.3,60.09972950189635,
0,49,0,98,0,261.34506520000286,262.34493279998424,262.34493279998424,262.84483059996273,262.84483059996273,263.1448321999633,263.1448321999633,up,1,1.8529688999988139,None,0,maniii,001,2023-11-28_13h18.14.200,Final_Project,2023.1.3,60.09972950189635,
45,49,1,99,1,265.02820850000717,266.0281195999705,266.0281195999705,266.5279768999899,266.5279768999899,266.8281006999896,266.8281006999896,up,1,0.5466735999798402,None,0,maniii,001,2023-11-28_13h18.14.200,Final_Project,2023.1.3,60.09972950189635,
0,50,0,100,0,267.39476990001276,268.39475979999406,268.39475979999406,268.8948984000017,268.8948984000017,269.1943983999663,269.1943983999663,up,1,0.2602476999745704,None,0,maniii,001,2023-11-28_13h18.14.200,Final_Project,2023.1.3,60.09972950189635,
45,50,1,101,1,269.4781398999621,270.47798849997343,270.47798849997343,270.9782118999865,270.9782118999865,271.2778257000027,271.2778257000027,down,1,0.253701799956616,None,4,maniii,001,2023-11-28_13h18.14.200,Final_Project,2023.1.3,60.09972950189635,
45,51,0,102,1,271.5615402999683,272.5615739999921,272.5615739999921,273.06152809999185,273.06152809999185,273.3612095999997,273.3612095999997,down,1,0.1162260000128299,None,-2,maniii,001,2023-11-28_13h18.14.200,Final_Project,2023.1.3,60.09972950189635,
0,51,1,103,0,273.49500980001176,274.49505540000973,274.49505540000973,274.9950078999973,274.9950078999973,275.29502009996213,275.29502009996213,up,1,0.057781799987424165,None,0,maniii,001,2023-11-28_13h18.14.200,Final_Project,2023.1.3,60.09972950189635,
0,52,0,104,0,275.37801169999875,276.37806680001086,276.37806680001086,276.8780734000029,276.8780734000029,277.17794229998253,277.17794229998253,up,1,0.21895930002210662,None,0,maniii,001,2023-11-28_13h18.14.200,Final_Project,2023.1.3,60.09972950189635,
45,52,1,105,1,277.4280369000044,278.42814350000117,278.42814350000117,278.9282123000012,278.9282123000012,279.2281033999752,279.2281033999752,down,0,0.39057300001149997,None,0,maniii,001,2023-11-28_13h18.14.200,Final_Project,2023.1.3,60.09972950189635,
0,53,0,106,0,279.6449239999638,280.6447848000098,280.6447848000098,281.14481099997647,281.14481099997647,281.44436879997374,281.44436879997374,down,1,0.40144210000289604,None,-2,maniii,001,2023-11-28_13h18.14.200,Final_Project,2023.1.3,60.09972950189635,
45,53,1,107,1,281.89009659999283,282.8776832000003,282.89441359997727,283.37813049997203,283.37813049997203,283.67794229998253,283.67794229998253,down,1,0.2387948000105098,None,3,maniii,001,2023-11-28_13h18.14.200,Final_Project,2023.1.3,60.09972950189635,
45,54,0,108,1,283.9450077000074,284.94483629998285,284.94483629998285,285.44490850000875,285.44490850000875,285.74483229999896,285.74483229999896,down,1,0.37870549998478964,None,-5,maniii,001,2023-11-28_13h18.14.200,Final_Project,2023.1.3,60.09972950189635,
0,54,1,109,0,286.1448590999935,287.14476940000895,287.14476940000895,287.644976200012,287.644976200012,287.94478149997303,287.94478149997303,up,0,0.34195989998988807,None,-2,maniii,001,2023-11-28_13h18.14.200,Final_Project,2023.1.3,60.09972950189635,
0,55,0,110,0,288.31163959996775,289.31148360000225,289.31148360000225,289.8117160999682,289.8117160999682,290.11163279996254,290.11163279996254,up,1,0.36572520004119724,None,0,maniii,001,2023-11-28_13h18.14.200,Final_Project,2023.1.3,60.09972950189635,
45,55,1,111,1,290.49505839997437,291.49511899997015,291.49511899997015,291.9948643000098,291.9948643000098,292.2948618999799,292.2948618999799,up,0,0.33459330000914633,None,-5,maniii,001,2023-11-28_13h18.14.200,Final_Project,2023.1.3,60.09972950189635,
45,56,0,112,1,292.66138770000543,293.6615238999948,293.6615238999948,294.1614995999844,294.1614995999844,294.4615594999632,294.4615594999632,up,0,0.26029300002846867,None,-4,maniii,001,2023-11-28_13h18.14.200,Final_Project,2023.1.3,60.09972950189635,
0,56,1,113,0,294.74483569996664,295.7450605999911,295.7450605999911,296.24489470000844,296.24489470000844,296.54481069999747,296.54481069999747,up,1,0.2492742000031285,None,0,maniii,001,2023-11-28_13h18.14.200,Final_Project,2023.1.3,60.09972950189635,
0,57,0,114,0,296.8113811999792,297.8116735999938,297.8116735999938,298.31155809998745,298.31155809998745,298.61118489998626,298.61118489998626,down,0,1.2950539999874309,None,0,maniii,001,2023-11-28_13h18.14.200,Final_Project,2023.1.3,60.09972950189635,
45,57,1,115,1,299.9281254999805,300.92806050000945,300.92806050000945,301.42822269996395,301.42822269996395,301.72796290001133,301.72796290001133,up,0,0.6144051000010222,None,1,maniii,001,2023-11-28_13h18.14.200,Final_Project,2023.1.3,60.09972950189635,
45,58,0,116,1,302.3614779000054,303.36157740000635,303.36157740000635,303.86166669998784,303.86166669998784,304.1614886999596,304.1614886999596,down,0,0.23729550000280142,None,0,maniii,001,2023-11-28_13h18.14.200,Final_Project,2023.1.3,60.09972950189635,
0,58,1,117,0,304.42819840001175,305.42801809997763,305.42801809997763,305.9278502999805,305.9278502999805,306.2276344000129,306.2276344000129,down,0,0.35224719997495413,None,0,maniii,001,2023-11-28_13h18.14.200,Final_Project,2023.1.3,60.09972950189635,
0,59,0,118,0,306.6116861999617,307.61159389995737,307.61159389995737,308.1117310000118,308.1117310000118,308.4116730999667,308.4116730999667,up,1,0.14403030002722517,None,0,maniii,001,2023-11-28_13h18.14.200,Final_Project,2023.1.3,60.09972950189635,
45,59,1,119,1,308.5781921999878,309.57840319996467,309.57840319996467,310.0783505999716,310.0783505999716,310.3781740000122,310.3781740000122,down,0,0.2916897999821231,None,0,maniii,001,2023-11-28_13h18.14.200,Final_Project,2023.1.3,60.09972950189635,
45,60,0,120,1,310.6949478999595,311.69480989995645,311.69480989995645,312.1949440999888,312.1949440999888,312.494934599963,312.494934599963,up,1,0.30497729999478906,None,0,maniii,001,2023-11-28_13h18.14.200,Final_Project,2023.1.3,60.09972950189635,
0,60,1,121,0,312.8283019000082,313.82840709999437,313.82840709999437,314.3283671999816,314.3283671999816,314.6283160999883,314.6283160999883,up,1,0.23245090001728386,None,0,maniii,001,2023-11-28_13h18.14.200,Final_Project,2023.1.3,60.09972950189635,
0,61,0,122,0,314.87822179996874,315.8780340999947,315.8780340999947,316.37830219999887,316.37830219999887,316.6780362999998,316.6780362999998,up,0,0.09046630002558231,None,4,maniii,001,2023-11-28_13h18.14.200,Final_Project,2023.1.3,60.09972950189635,
45,61,1,123,1,316.79500199999893,317.79508829995757,317.79508829995757,318.29509719996713,318.29509719996713,318.5948606999591,318.5948606999591,up,1,0.2323232000344433,None,0,maniii,001,2023-11-28_13h18.14.200,Final_Project,2023.1.3,60.09972950189635,
0,62,0,124,0,318.84500179998577,319.84499750001123,319.84499750001123,320.34518579998985,320.34518579998985,320.64499739999883,320.64499739999883,down,1,0.6506692999973893,None,-5,maniii,001,2023-11-28_13h18.14.200,Final_Project,2023.1.3,60.09972950189635,
45,62,1,125,1,321.31148849998135,322.31172009999864,322.31172009999864,322.8116047999938,322.8116047999938,323.111497099977,323.111497099977,up,1,0.2997637999942526,None,0,maniii,001,2023-11-28_13h18.14.200,Final_Project,2023.1.3,60.09972950189635,
45,63,0,126,1,323.4283973000129,324.4282779999776,324.4282779999776,324.92825609998545,324.92825609998545,325.22796669998206,325.22796669998206,down,1,0.546022400027141,None,-5,maniii,001,2023-11-28_13h18.14.200,Final_Project,2023.1.3,60.09972950189635,
0,63,1,127,0,325.79485780000687,326.7949951000046,326.7949951000046,327.2955420999788,327.2955420999788,327.59489889995893,327.59489889995893,up,1,0.3140840000123717,None,0,maniii,001,2023-11-28_13h18.14.200,Final_Project,2023.1.3,60.09972950189635,
0,64,0,128,0,327.9283426000038,328.92837739997776,328.92837739997776,329.4281692999648,329.4281692999648,329.7282798999804,329.7282798999804,up,1,0.3461648999946192,None,0,maniii,001,2023-11-28_13h18.14.200,Final_Project,2023.1.3,60.09972950189635,
45,64,1,129,1,330.0950624999823,331.09495110000717,331.09495110000717,331.5947362000006,331.5947362000006,331.89490879996447,331.89490879996447,down,1,0.31442269997205585,None,4,maniii,001,2023-11-28_13h18.14.200,Final_Project,2023.1.3,60.09972950189635,
45,65,0,130,1,332.22826840000926,333.22852889995556,333.22852889995556,333.7283649999881,333.7283649999881,334.0279359999695,334.0279359999695,up,0,0.186853599967435,None,-4,maniii,001,2023-11-28_13h18.14.200,Final_Project,2023.1.3,60.09972950189635,
0,65,1,131,0,334.2451020999579,335.2451082000043,335.2451082000043,335.7452344999765,335.7452344999765,336.04483349999646,336.04483349999646,up,1,0.20860449998872355,None,0,maniii,001,2023-11-28_13h18.14.200,Final_Project,2023.1.3,60.09972950189635,
0,66,0,132,0,336.27825460000895,337.27823619998526,337.27823619998526,337.7783190999762,337.7783190999762,338.0782754999818,338.0782754999818,up,1,0.4307340999948792,None,0,maniii,001,2023-11-28_13h18.14.200,Final_Project,2023.1.3,60.09972950189635,
45,66,1,133,1,338.5283219999983,339.5281835999922,339.5281835999922,340.0283493999741,340.0283493999741,340.3283453999902,340.3283453999902,up,1,0.6823382999864407,None,0,maniii,001,2023-11-28_13h18.14.200,Final_Project,2023.1.3,60.09972950189635,
45,67,0,134,1,341.0285908000078,342.0282309000031,342.0282309000031,342.5285012999666,342.5285012999666,342.82820899999933,342.82820899999933,down,1,0.46131529996637255,None,-5,maniii,001,2023-11-28_13h18.14.200,Final_Project,2023.1.3,60.09972950189635,
0,67,1,135,0,343.3115807999857,344.31139539997093,344.31139539997093,344.811610499979,344.811610499979,345.1113547999994,345.1113547999994,down,1,0.34224640001775697,None,4,maniii,001,2023-11-28_13h18.14.200,Final_Project,2023.1.3,60.09972950189635,
0,68,0,136,0,345.4785276000039,346.47850019996986,346.47850019996986,346.97835459996713,346.97835459996713,347.27832370001124,347.27832370001124,down,1,0.2220637000282295,None,2,maniii,001,2023-11-28_13h18.14.200,Final_Project,2023.1.3,60.09972950189635,
45,68,1,137,1,347.5281594999833,348.52829290000955,348.52829290000955,349.0283581999829,349.0283581999829,349.3283100000117,349.3283100000117,down,0,0.4695252999663353,None,0,maniii,001,2023-11-28_13h18.14.200,Final_Project,2023.1.3,60.09972950189635,
0,69,0,138,0,349.82831269997405,350.828576800006,350.828576800006,351.3286128999898,351.3286128999898,351.6281517999596,351.6281517999596,up,1,0.4845895000034943,None,0,maniii,001,2023-11-28_13h18.14.200,Final_Project,2023.1.3,60.09972950189635,
45,69,1,139,1,352.1450266999891,353.14485479996074,353.14485479996074,353.64497119997395,353.64497119997395,353.94490409997525,353.94490409997525,down,1,0.34762630000477657,None,-2,maniii,001,2023-11-28_13h18.14.200,Final_Project,2023.1.3,60.09972950189635,
45,70,0,140,1,354.3114419999765,355.3115654999856,355.3115654999856,355.81154600001173,355.81154600001173,356.11114479997195,356.11114479997195,up,1,0.5008633999968879,None,0,maniii,001,2023-11-28_13h18.14.200,Final_Project,2023.1.3,60.09972950189635,
0,70,1,141,0,356.62839249998797,357.6281588000129,357.6281588000129,358.1284963999642,358.1284963999642,358.4283660000074,358.4283660000074,down,1,0.2776878000004217,None,4,maniii,001,2023-11-28_13h18.14.200,Final_Project,2023.1.3,60.09972950189635,
0,71,0,142,0,358.7283249999746,359.72835329995723,359.72835329995723,360.2283453999553,360.2283453999553,360.5283841000055,360.5283841000055,down,0,0.09168189996853471,None,0,maniii,001,2023-11-28_13h18.14.200,Final_Project,2023.1.3,60.09972950189635,
45,71,1,143,1,360.6449164999649,361.64478219999,361.64478219999,362.14507079997566,362.1285232999944,362.44500289997086,362.4281278999988,down,0,0.036959399993065745,None,0,maniii,001,2023-11-28_13h18.14.200,Final_Project,2023.1.3,60.09972950189635,
45,72,0,144,1,362.5117244999856,363.5115228999639,363.5115228999639,364.0116540999734,364.0116540999734,364.3115468999604,364.3115468999604,down,1,2.168140300025698,None,3,maniii,001,2023-11-28_13h18.14.200,Final_Project,2023.1.3,60.09972950189635,
0,72,1,145,0,366.5116920999717,367.51171270001214,367.51171270001214,368.0116482999874,368.0116482999874,368.31100059999153,368.31100059999153,up,1,0.3533923999639228,None,0,maniii,001,2023-11-28_13h18.14.200,Final_Project,2023.1.3,60.09972950189635,
0,73,0,146,0,368.69515919999685,369.69516199995996,369.69516199995996,370.1949703999562,370.1949703999562,370.4950764999958,370.4950764999958,up,0,0.026960099989082664,None,-5,maniii,001,2023-11-28_13h18.14.200,Final_Project,2023.1.3,60.09972950189635,
45,73,1,147,1,370.5450208999682,371.54491289996076,371.54491289996076,372.04504799999995,372.04504799999995,372.34491779998643,372.34491779998643,down,0,0.7436427000211552,None,0,maniii,001,2023-11-28_13h18.14.200,Final_Project,2023.1.3,60.09972950189635,
45,74,0,148,1,373.11156290001236,374.1115468000062,374.1115468000062,374.6116351999808,374.6116351999808,374.91165229998296,374.91165229998296,up,1,1.0502552000107244,None,0,maniii,001,2023-11-28_13h18.14.200,Final_Project,2023.1.3,60.09972950189635,
0,74,1,149,0,375.9784954999923,376.97820909996517,376.97820909996517,377.478451700008,377.478451700008,377.7782593999873,377.7782593999873,down,0,1.2807429999811575,None,0,maniii,001,2023-11-28_13h18.14.200,Final_Project,2023.1.3,60.09972950189635,
0,75,0,150,0,379.07823709998047,380.07828349998454,380.07828349998454,380.5783906999859,380.5783906999859,380.87855059996946,380.87855059996946,up,1,0.3659336999990046,None,0,maniii,001,2023-11-28_13h18.14.200,Final_Project,2023.1.3,60.09972950189635,
45,75,1,151,1,381.26156389998505,382.2616244999808,382.2616244999808,382.76176329999,382.76176329999,383.06144580000546,383.06144580000546,up,1,0.4614700999809429,None,0,maniii,001,2023-11-28_13h18.14.200,Final_Project,2023.1.3,60.09972950189635,
45,76,0,152,1,383.5449370999704,384.54497349995654,384.54497349995654,385.0448180999956,385.0448180999956,385.3451572000049,385.3451572000049,up,0,0.3162235000054352,None,1,maniii,001,2023-11-28_13h18.14.200,Final_Project,2023.1.3,60.09972950189635,
0,76,1,153,0,385.678320899955,386.67834639997454,386.67834639997454,387.1786330000032,387.1786330000032,387.4781984000001,387.4781984000001,up,0,0.42782740003895015,None,-2,maniii,001,2023-11-28_13h18.14.200,Final_Project,2023.1.3,60.09972950189635,
0,77,0,154,0,387.92837360000703,388.92861489998177,388.92861489998177,389.4285451999749,389.4285451999749,389.7284478999791,389.7284478999791,down,1,0.5216329999966547,None,-3,maniii,001,2023-11-28_13h18.14.200,Final_Project,2023.1.3,60.09972950189635,
45,77,1,155,1,390.27834439999424,391.2784433999914,391.2784433999914,391.7782137999893,391.7782137999893,392.0784216999891,392.0784216999891,up,0,0.39329219999490306,None,2,maniii,001,2023-11-28_13h18.14.200,Final_Project,2023.1.3,60.09972950189635,
45,78,0,156,1,392.4952473999583,393.49493449996226,393.49493449996226,393.9951579999761,393.9951579999761,394.2952867000131,394.2952867000131,down,1,0.2716260000015609,None,-2,maniii,001,2023-11-28_13h18.14.200,Final_Project,2023.1.3,60.09972950189635,
0,78,1,157,0,394.5948102999828,395.59527250000974,395.59527250000974,396.0950266,396.0950266,396.39505679998547,396.39505679998547,up,0,0.2287299000308849,None,-5,maniii,001,2023-11-28_13h18.14.200,Final_Project,2023.1.3,60.09972950189635,
45,79,0,158,1,396.64524390001316,397.6450962999952,397.6450962999952,398.14503949997015,398.14503949997015,398.4448080000002,398.4448080000002,up,1,0.4447827000403777,None,0,maniii,001,2023-11-28_13h18.14.200,Final_Project,2023.1.3,60.09972950189635,
0,79,1,159,0,398.9116681999876,399.91164770000614,399.91164770000614,400.41180699999677,400.41180699999677,400.7112399999751,400.7112399999751,down,0,0.14468660001875833,None,0,maniii,001,2023-11-28_13h18.14.200,Final_Project,2023.1.3,60.09972950189635,
0,80,0,160,0,400.87868959998013,401.8782590999617,401.8782590999617,402.3784922999912,402.3784922999912,402.678079699981,402.678079699981,down,0,0.16360670002177358,None,0,maniii,001,2023-11-28_13h18.14.200,Final_Project,2023.1.3,60.09972950189635,
45,80,1,161,1,402.861384799995,403.8615611999994,403.8615611999994,404.3616248999606,404.3616248999606,404.6615576999611,404.6615576999611,down,1,0.2852185000083409,None,4,maniii,001,2023-11-28_13h18.14.200,Final_Project,2023.1.3,60.09972950189635,
45,81,0,162,1,404.9785859999829,405.97837339999387,405.97837339999387,406.4783577999915,406.4783577999915,406.77828589995624,406.77828589995624,down,0,1.627723999961745,None,0,maniii,001,2023-11-28_13h18.14.200,Final_Project,2023.1.3,60.09972950189635,
0,81,1,163,0,408.42819449998206,409.42835870001,409.42835870001,409.9284830999677,409.9284830999677,410.2280490999692,410.2280490999692,up,0,0.08137440000427887,None,3,maniii,001,2023-11-28_13h18.14.200,Final_Project,2023.1.3,60.09972950189635,
0,82,0,164,0,410.3285433999845,411.3283470000024,411.3283470000024,411.8285419999738,411.8285419999738,412.1282336000004,412.1282336000004,up,0,1.2737269999925047,None,-2,maniii,001,2023-11-28_13h18.14.200,Final_Project,2023.1.3,60.09972950189635,
45,82,1,165,1,413.428531499987,414.42849949997617,414.42849949997617,414.9284495000029,414.9284495000029,415.22837009996874,415.22837009996874,up,0,0.7446337000001222,None,3,maniii,001,2023-11-28_13h18.14.200,Final_Project,2023.1.3,60.09972950189635,
45,83,0,166,1,415.9950994999963,416.9951100999606,416.9951100999606,417.4951175999595,417.4951175999595,417.79502749996027,417.79502749996027,down,1,0.6573379000183195,None,1,maniii,001,2023-11-28_13h18.14.200,Final_Project,2023.1.3,60.09972950189635,
0,83,1,167,0,418.478395299986,419.478588900005,419.478588900005,419.9785070999642,419.9785070999642,420.27827529999195,420.27827529999195,up,1,0.26340940000955015,None,0,maniii,001,2023-11-28_13h18.14.200,Final_Project,2023.1.3,60.09972950189635,
45,84,0,168,1,420.5615788999712,421.5615150000085,421.5615150000085,422.0616037999862,422.0616037999862,422.36170339997625,422.36170339997625,down,1,1.7067330999998376,None,1,maniii,001,2023-11-28_13h18.14.200,Final_Project,2023.1.3,60.09972950189635,
0,84,1,169,0,424.09524689998943,425.0951950000017,425.0951950000017,425.5951172999921,425.5951172999921,425.89521079999395,425.89521079999395,down,1,0.6864550999598578,None,-2,maniii,001,2023-11-28_13h18.14.200,Final_Project,2023.1.3,60.09972950189635,
45,85,0,170,1,426.611691099999,427.61168939998606,427.61168939998606,428.1117740999907,428.1117740999907,428.41148129996145,428.41148129996145,down,1,0.2059181000222452,None,-5,maniii,001,2023-11-28_13h18.14.200,Final_Project,2023.1.3,60.09972950189635,
0,85,1,171,0,428.644659099984,429.6446250999579,429.6446250999579,430.1445912999916,430.1445912999916,430.4444904999691,430.4444904999691,up,0,0.2599119000369683,None,-4,maniii,001,2023-11-28_13h18.14.200,Final_Project,2023.1.3,60.09972950189635,
0,86,0,172,0,430.7280423999764,431.72845339996275,431.72845339996275,432.22864099999424,432.22864099999424,432.5283838000032,432.5283838000032,up,0,0.32522569998400286,None,-2,maniii,001,2023-11-28_13h18.14.200,Final_Project,2023.1.3,60.09972950189635,
45,86,1,173,1,432.8783942000009,433.878392899991,433.878392899991,434.3784389999928,434.3784389999928,434.6783590000123,434.6783590000123,up,0,0.28683619998628274,None,-5,maniii,001,2023-11-28_13h18.14.200,Final_Project,2023.1.3,60.09972950189635,
45,87,0,174,1,434.9951196999755,435.9950218999875,435.9950218999875,436.49512159998994,436.49512159998994,436.7949839999783,436.7949839999783,up,1,0.1365046999999322,None,0,maniii,001,2023-11-28_13h18.14.200,Final_Project,2023.1.3,60.09972950189635,
0,87,1,175,0,436.9620267999708,437.9617899999721,437.9617899999721,438.46174589998554,438.46174589998554,438.76136439997936,438.76136439997936,up,0,0.265821999986656,None,2,maniii,001,2023-11-28_13h18.14.200,Final_Project,2023.1.3,60.09972950189635,
45,88,0,176,1,439.0447681999649,440.04495819995645,440.04495819995645,440.54511349997483,440.54511349997483,440.84523470001295,440.84523470001295,down,1,0.2957282999996096,None,-5,maniii,001,2023-11-28_13h18.14.200,Final_Project,2023.1.3,60.09972950189635,
0,88,1,177,0,441.1617579999729,442.16164429998025,442.16164429998025,442.66209289996186,442.66209289996186,442.96150939998915,442.96150939998915,up,1,0.4119658999843523,None,0,maniii,001,2023-11-28_13h18.14.200,Final_Project,2023.1.3,60.09972950189635,
45,89,0,178,1,443.39520379999885,444.3951951999916,444.3951951999916,444.8952120000031,444.8952120000031,445.1951947999769,445.1951947999769,up,1,0.68433429999277,None,0,maniii,001,2023-11-28_13h18.14.200,Final_Project,2023.1.3,60.09972950189635,
0,89,1,179,0,445.8953216999653,446.8951595000108,446.8951595000108,447.3951792999869,447.3951792999869,447.69518709997647,447.69518709997647,up,1,0.43863089999649674,None,0,maniii,001,2023-11-28_13h18.14.200,Final_Project,2023.1.3,60.09972950189635,
0,90,0,180,0,448.1618265999714,449.1617212999845,449.1617212999845,449.6617789999582,449.6617789999582,449.9615521999658,449.9615521999658,up,1,0.481465200020466,None,0,maniii,001,2023-11-28_13h18.14.200,Final_Project,2023.1.3,60.09972950189635,
45,90,1,181,1,450.46177379996516,451.46185429999605,451.46185429999605,451.96176189999096,451.96176189999096,452.26168220001273,452.26168220001273,down,0,0.2956265000393614,None,0,maniii,001,2023-11-28_13h18.14.200,Final_Project,2023.1.3,60.09972950189635,
0,91,0,182,0,452.57859649998136,453.5787396999658,453.5787396999658,454.07856389996596,454.07856389996596,454.3784515999723,454.3784515999723,up,0,1.2782567999674939,None,3,maniii,001,2023-11-28_13h18.14.200,Final_Project,2023.1.3,60.09972950189635,
45,91,1,183,1,455.6786452999804,456.6789022999583,456.6789022999583,457.1784660000121,457.1784660000121,457.4785091999802,457.4785091999802,up,0,0.23280779999913648,None,1,maniii,001,2023-11-28_13h18.14.200,Final_Project,2023.1.3,60.09972950189635,
45,92,0,184,1,457.72880779998377,458.7286580000073,458.7286580000073,459.2285782999825,459.2285782999825,459.5284283999936,459.5284283999936,up,1,0.2479291000054218,None,0,maniii,001,2023-11-28_13h18.14.200,Final_Project,2023.1.3,60.09972950189635,
0,92,1,185,0,459.79512969998177,460.7951435999712,460.7951435999712,461.2953096999554,461.2953096999554,461.5950887000072,461.5950887000072,down,0,0.8117383000208065,None,0,maniii,001,2023-11-28_13h18.14.200,Final_Project,2023.1.3,60.09972950189635,
0,93,0,186,0,462.42853679996915,463.4285228999797,463.4285228999797,463.9285622999887,463.9285622999887,464.22845880000386,464.22845880000386,up,0,0.33236889995168895,None,3,maniii,001,2023-11-28_13h18.14.200,Final_Project,2023.1.3,60.09972950189635,
45,93,1,187,1,464.5787653999869,465.57866429997375,465.57866429997375,466.07837790000485,466.07837790000485,466.37845339998603,466.37845339998603,down,1,0.8910509999841452,None,4,maniii,001,2023-11-28_13h18.14.200,Final_Project,2023.1.3,60.09972950189635,
0,94,0,188,0,467.2953400000115,468.29520839999896,468.29520839999896,468.79535609995946,468.79535609995946,469.09505000000354,469.09505000000354,up,1,0.4902822999865748,None,0,maniii,001,2023-11-28_13h18.14.200,Final_Project,2023.1.3,60.09972950189635,
45,94,1,189,1,469.61174189997837,470.611940999981,470.611940999981,471.11151119996794,471.11151119996794,471.41189019999,471.41189019999,up,0,0.5795068999868818,None,-5,maniii,001,2023-11-28_13h18.14.200,Final_Project,2023.1.3,60.09972950189635,
0,95,0,190,0,472.01191939995624,473.01176289998693,473.01176289998693,473.51184509997256,473.51184509997256,473.81145410001045,473.81145410001045,down,0,0.38501490000635386,None,0,maniii,001,2023-11-28_13h18.14.200,Final_Project,2023.1.3,60.09972950189635,
45,95,1,191,1,474.2284818000044,475.2285828999593,475.2285828999593,475.728699099971,475.728699099971,476.0286111999885,476.0286111999885,down,1,0.7324326999951154,None,-3,maniii,001,2023-11-28_13h18.14.200,Final_Project,2023.1.3,60.09972950189635,
45,96,0,192,1,476.77865669998573,477.77867109997896,477.77867109997896,478.27870659995824,478.27870659995824,478.5783403000096,478.5783403000096,up,0,0.6022991000209004,None,1,maniii,001,2023-11-28_13h18.14.200,Final_Project,2023.1.3,60.09972950189635,
0,96,1,193,0,479.21154069999466,480.2118727999623,480.2118727999623,480.7119876999641,480.7119876999641,481.01167199999327,481.01167199999327,up,1,1.4801768999896012,None,0,maniii,001,2023-11-28_13h18.14.200,Final_Project,2023.1.3,60.09972950189635,
45,97,0,194,1,482.5118617999833,483.5117220999673,483.5117220999673,484.0117838999722,484.0117838999722,484.31138369999826,484.31138369999826,down,1,0.21546959999250248,None,3,maniii,001,2023-11-28_13h18.14.200,Final_Project,2023.1.3,60.09972950189635,
0,97,1,195,0,484.54505549999885,485.54581669997424,485.54581669997424,486.0452726999647,486.0452726999647,486.34508800000185,486.34508800000185,up,1,0.6809270000085235,None,0,maniii,001,2023-11-28_13h18.14.200,Final_Project,2023.1.3,60.09972950189635,
45,98,0,196,1,487.0451574999606,488.0452936000074,488.0452936000074,488.5454664999852,488.5454664999852,488.84508669999195,488.84508669999195,up,1,0.5518813999951817,None,0,maniii,001,2023-11-28_13h18.14.200,Final_Project,2023.1.3,60.09972950189635,
0,98,1,197,0,489.4286747999722,490.42860439996,490.42860439996,490.9287425999646,490.9287425999646,491.22867979999864,491.22867979999864,up,1,0.4685537999612279,None,0,maniii,001,2023-11-28_13h18.14.200,Final_Project,2023.1.3,60.09972950189635,
0,99,0,198,0,491.7285106999916,492.7286239999812,492.7286239999812,493.22847410000395,493.22847410000395,493.5284336999757,493.5284336999757,down,0,0.8259785000118427,None,0,maniii,001,2023-11-28_13h18.14.200,Final_Project,2023.1.3,60.09972950189635,
45,99,1,199,1,494.37856819998706,495.37860549998004,495.37860549998004,495.87854259996675,495.87854259996675,496.17876400001114,496.17876400001114,down,0,0.3027060000458732,None,0,maniii,001,2023-11-28_13h18.14.200,Final_Project,2023.1.3,60.09972950189635,
